timestamp,Roll1,Pitch1,Yaw1,gx,gy,gz,Roll2,Pitch2,Yaw2,ax,ay,az
476,-11.757158279418945,24.527524948120117,176.18344116210938,11.16943359375,12.26806640625,40.283203125,21.094743728637695,53.135074615478516,198.67820739746094,-0.991986095905304,0.007976238615810871,-0.12609495222568512
609,-11.559998512268066,24.615169525146484,176.402099609375,13.73291015625,16.2353515625,40.46630859375,21.13788414001465,53.119510650634766,198.87759399414062,-0.9941829442977905,-0.014378426596522331,-0.1067415401339531
729,-11.078433990478516,24.993709564208984,176.93421936035156,8.72802734375,33.3251953125,39.55078125,21.392168045043945,53.087459564208984,199.7386016845703,-0.986673891544342,-0.1172499731183052,-0.11281471699476242
910,-10.825101852416992,25.297880172729492,177.3721466064453,1.708984375,30.1513671875,45.166015625,21.50084114074707,53.09154510498047,200.36727905273438,-0.9868437647819519,-0.09631083905696869,-0.12985987961292267
1030,-10.577864646911621,25.512941360473633,177.7860565185547,0.6103515625,21.42333984375,39.24560546875,21.66240119934082,53.122779846191406,200.94598388671875,-0.9859105944633484,-0.1084786206483841,-0.1273290067911148
1149,-10.418679237365723,25.646024703979492,177.91441345214844,7.8125,14.58740234375,8.11767578125,21.975690841674805,53.17107009887695,201.43032836914062,-0.9906255006790161,-0.07931900769472122,-0.11121904850006104
1390,-10.262910842895508,25.577587127685547,177.8938446044922,-2.5634765625,-2.44140625,-0.6103515625,22.30615997314453,53.39790725708008,201.70352172851562,-0.9736271500587463,-0.20327812433242798,-0.10357735306024551
1510,-10.300797462463379,25.389684677124023,177.94903564453125,-2.01416015625,-10.43701171875,5.615234375,22.121063232421875,53.552886962890625,201.53953552246094,-0.9332717657089233,-0.3508386015892029,-0.07691600918769836
1629,-10.306472778320312,25.245891571044922,177.92510986328125,-0.6103515625,0.8544921875,-5.7373046875,22.170900344848633,53.682254791259766,201.53985595703125,-0.9555412530899048,-0.2859402894973755,-0.07196645438671112
1749,-10.320908546447754,24.710908889770508,177.94357299804688,-1.52587890625,-23.74267578125,0.30517578125,22.137847900390625,54.05559158325195,201.335693359375,-0.9740381240844727,-0.1965564340353012,-0.11231796443462372
1869,-10.40435791015625,24.447757720947266,177.8430938720703,5.37109375,-16.05224609375,-14.0380859375,22.2366886138916,54.207115173339844,201.2544403076172,-0.9742093086242676,-0.212970569729805,-0.07456351816654205
1989,-10.465930938720703,24.095598220825195,177.7301788330078,-0.1220703125,-29.6630859375,-17.51708984375,22.387788772583008,54.363468170166016,201.20022583007812,-0.977088987827301,-0.19652599096298218,-0.08169916272163391
2110,-10.37504768371582,23.81388282775879,177.54412841796875,5.126953125,-8.7890625,-16.11328125,22.471437454223633,54.598934173583984,201.03192138671875,-0.9875741004943848,-0.11176976561546326,-0.11047559231519699
2229,-10.329943656921387,23.601486206054688,177.491455078125,-0.244140625,-13.73291015625,-6.34765625,22.35243034362793,54.79143524169922,200.76608276367188,-0.9767859578132629,-0.1852010041475296,-0.10765554755926132
2350,-10.458123207092285,23.530670166015625,177.33480834960938,-5.859375,7.14111328125,-15.869140625,22.38910675048828,54.95082473754883,200.67755126953125,-0.9796268343925476,-0.16338768601417542,-0.11677207797765732
2469,-10.587356567382812,23.652698516845703,176.8760986328125,15.380859375,28.80859375,-33.99658203125,22.680448532104492,55.15755844116211,200.69424438476562,-0.9924377799034119,-0.09468825161457062,-0.07811184227466583
2589,-10.450103759765625,23.584325790405273,176.80299377441406,7.2021484375,-0.9765625,-5.43212890625,22.732114791870117,55.3027229309082,200.62159729003906,-0.9888082146644592,-0.08229214698076248,-0.12444467097520828
2706,-10.114726066589355,23.482255935668945,176.97219848632812,23.0712890625,-7.9345703125,15.44189453125,22.64885711669922,55.44607162475586,200.51705932617188,-0.9889528751373291,-0.04597553238272667,-0.14091980457305908
2816,-10.185993194580078,23.534080505371094,177.0107421875,-14.892578125,5.615234375,-4.7607421875,22.648921966552734,55.58656311035156,200.45143127441406,-0.9921591877937317,-0.06667770445346832,-0.10570855438709259
3005,-10.62083625793457,23.527925491333008,176.96554565429688,-23.37646484375,2.8076171875,-10.92529296875,23.087629318237305,55.79945755004883,200.77767944335938,-0.9941666126251221,-0.09832936525344849,-0.04431912675499916
3177,-10.042349815368652,23.448728561401367,177.16839599609375,48.4619140625,-7.38525390625,18.12744140625,23.149242401123047,55.875892639160156,200.8660430908203,-0.9888090491294861,-0.05649641901254654,-0.13807529211044312
3302,-9.641037940979004,23.395002365112305,177.2642059326172,20.1416015625,-4.45556640625,1.40380859375,23.239748001098633,55.95294952392578,200.94024658203125,-0.9863086342811584,-0.08277219533920288,-0.14263208210468292
3542,-9.293084144592285,23.387569427490234,177.36175537109375,16.66259765625,-1.89208984375,5.79833984375,23.396486282348633,56.15473556518555,201.08786010742188,-0.9936517477035522,-0.02234004996716976,-0.11025895178318024
3667,-9.325891494750977,23.428699493408203,177.33621215820312,4.2724609375,2.0751953125,1.03759765625,23.57209587097168,56.31655502319336,201.22215270996094,-0.9921730756759644,-0.04251999780535698,-0.11740774661302567
3782,-9.448141098022461,23.47754669189453,177.267822265625,-0.1220703125,3.90625,-1.28173828125,23.65716552734375,56.41611862182617,201.3112335205078,-0.9916102886199951,-0.053407441824674606,-0.11771436035633087
3969,-9.517492294311523,23.462743759155273,177.21017456054688,1.0986328125,2.3193359375,0.30517578125,23.822879791259766,56.70112991333008,201.4803466796875,-0.993264377117157,-0.04387674853205681,-0.10724098980426788
4079,-9.382841110229492,23.504331588745117,177.2543182373047,1.64794921875,3.5400390625,0.06103515625,23.913232803344727,56.8094596862793,201.5587615966797,-0.9929035902023315,-0.05076391249895096,-0.1075425073504448
4266,-9.360745429992676,23.44771957397461,177.2478790283203,1.5869140625,2.86865234375,-0.48828125,23.973609924316406,56.9172477722168,201.618896484375,-0.9921561479568481,-0.05336984619498253,-0.11303947865962982
4501,-9.275476455688477,23.643136978149414,177.25697326660156,3.0517578125,1.953125,0.18310546875,24.133848190307617,57.136932373046875,201.7390594482422,-0.9925804734230042,-0.04327032342553139,-0.113629549741745
4630,-9.366711616516113,23.67366600036621,177.20538330078125,3.0517578125,3.173828125,0.18310546875,24.20962905883789,57.24991226196289,201.81005859375,-0.9910584688186646,-0.050193823873996735,-0.12362774461507797
4750,-9.382864952087402,23.734539031982422,177.1853790283203,3.11279296875,2.685546875,1.15966796875,24.252544403076172,57.407379150390625,201.89105224609375,-0.995887279510498,-0.013650492765009403,-0.08956639468669891
4930,-9.521623611450195,23.840038299560547,177.08297729492188,13.97705078125,19.47021484375,19.47021484375,24.18241310119629,57.61091995239258,201.941650390625,-0.9356601238250732,-0.29333359003067017,-0.19620245695114136
5050,-9.321298599243164,23.86946678161621,177.3037109375,10.92529296875,3.72314453125,27.34375,24.49057388305664,57.54068374633789,202.3917999267578,-0.9709034562110901,-0.06397833675146103,-0.23076647520065308
5169,-9.363592147827148,23.940887451171875,177.44659423828125,2.0751953125,18.9208984375,20.08056640625,24.682897567749023,57.463714599609375,202.68800354003906,-0.97819584608078,-0.14239254593849182,-0.15118667483329773
5290,-9.117412567138672,24.124034881591797,177.92184448242188,-32.958984375,-2.25830078125,-2.86865234375,24.32399559020996,57.55590057373047,202.63629150390625,-0.9795581102371216,-0.19979622960090637,0.023398535326123238
5410,-9.187488555908203,23.989093780517578,177.89083862304688,8.4228515625,-0.48828125,3.96728515625,24.25956916809082,57.68737030029297,202.50579833984375,-0.9536222219467163,-0.1747320145368576,-0.24509868025779724
5590,-9.225011825561523,23.963260650634766,177.87680053710938,8.60595703125,0.42724609375,2.197265625,24.13869857788086,57.80097579956055,202.41583251953125,-0.9740221500396729,-0.10671581327915192,-0.19973161816596985
5710,-9.381155967712402,23.935251235961914,177.80215454101562,0.1220703125,0.30517578125,-0.9765625,24.260921478271484,58.05248260498047,202.4320831298828,-0.9691464900970459,-0.08963343501091003,-0.22961057722568512
5830,-9.550870895385742,23.91451072692871,177.72549438476562,-5.2490234375,1.0986328125,-3.35693359375,24.464370727539062,58.27347946166992,202.52877807617188,-0.970893144607544,-0.11216440051794052,-0.21162642538547516
5950,-9.75676155090332,23.9300537109375,177.6175537109375,-3.47900390625,3.23486328125,-2.8076171875,24.664384841918945,58.67116165161133,202.61671447753906,-0.98679119348526,-0.06167444959282875,-0.14979775249958038
6070,-9.96424674987793,23.936363220214844,177.5076446533203,-7.01904296875,3.84521484375,-6.2255859375,24.919729232788086,58.927066802978516,202.7713623046875,-0.9894080758094788,-0.05721067264676094,-0.1334114372730255
6190,-10.32816219329834,24.08264923095703,177.21107482910156,-12.8173828125,22.76611328125,-24.90234375,25.08542251586914,59.21014404296875,202.8739776611328,-0.9897862672805786,0.05935001000761986,-0.1296176314353943
6430,-10.28610897064209,24.178083419799805,176.55177307128906,31.005859375,18.798828125,-43.39599609375,25.743440628051758,59.24900817871094,202.97360229492188,-0.9777301549911499,-0.18567156791687012,-0.0978255420923233
6550,-10.320189476013184,24.187522888183594,176.45191955566406,-28.38134765625,3.72314453125,-14.0380859375,26.27193832397461,59.299888610839844,203.40174865722656,-0.9871833324432373,-0.15958872437477112,0.0006868955097161233
6722,-10.234477043151855,23.91442108154297,176.4829559326172,4.69970703125,1.5869140625,1.03759765625,26.78260040283203,59.456634521484375,203.85060119628906,-0.9836828112602234,-0.13999028503894806,-0.11300857365131378
6847,-10.405186653137207,23.812118530273438,176.3939208984375,0.91552734375,2.86865234375,0.244140625,26.8115234375,59.728309631347656,203.85299682617188,-0.9943884611129761,-0.07639959454536438,-0.07317648828029633
6957,-10.444039344787598,23.762371063232422,176.37852478027344,3.7841796875,2.86865234375,2.38037109375,26.886594772338867,59.854408264160156,203.88755798339844,-0.9921953678131104,-0.08473194390535355,-0.09148157387971878
7088,-10.50711727142334,23.679725646972656,176.34901428222656,5.43212890625,2.197265625,2.25830078125,27.18919563293457,60.069190979003906,204.09925842285156,-0.9898785352706909,-0.0988912582397461,-0.10178916901350021
7198,-10.570387840270996,23.656536102294922,176.31532287597656,5.55419921875,2.0751953125,2.0751953125,27.347118377685547,60.168880462646484,204.2083282470703,-0.9907331466674805,-0.10479023307561874,-0.08641016483306885
7323,-10.629471778869629,23.645601272583008,176.28648376464844,5.06591796875,1.46484375,1.89208984375,27.48690414428711,60.27553176879883,204.29995727539062,-0.9904695153236389,-0.09709073603153229,-0.09769079834222794
7438,-10.718210220336914,23.6398983001709,176.24363708496094,2.0751953125,2.62451171875,0.732421875,27.589200973510742,60.37834548950195,204.38809204101562,-0.9913992285728455,-0.09260059893131256,-0.09248127043247223
7625,-10.868856430053711,23.643888473510742,176.1722412109375,1.64794921875,3.0517578125,0.48828125,27.716703414916992,60.543304443359375,204.49110412597656,-0.9908336997032166,-0.09759663790464401,-0.09340022504329681
7750,-10.975242614746094,23.643037796020508,176.1234588623047,1.46484375,2.74658203125,0.3662109375,27.80013084411621,60.654335021972656,204.5670166015625,-0.9906905889511108,-0.09863602370023727,-0.09382451325654984
7860,-11.084692001342773,23.645265579223633,176.07620239257812,0.8544921875,3.7841796875,0.8544921875,27.864498138427734,60.76950454711914,204.63351440429688,-0.9894604682922363,-0.11024529486894608,-0.09388169646263123
7984,-11.297341346740723,23.6245059967041,175.97923278808594,1.64794921875,2.25830078125,0.42724609375,27.936378479003906,61.00705337524414,204.69534301757812,-0.9914258122444153,-0.0931146889925003,-0.09167663007974625
8109,-11.403511047363281,23.62025260925293,175.9302215576172,1.3427734375,2.74658203125,0.48828125,27.987215042114258,61.127986907958984,204.7299041748047,-0.9912765622138977,-0.09682346880435944,-0.08942142874002457
8219,-11.513030052185059,23.621185302734375,175.87982177734375,1.15966796875,2.9296875,0.3662109375,28.05768585205078,61.24456024169922,204.7902069091797,-0.9919154644012451,-0.08773021399974823,-0.09169067442417145
8406,-11.619081497192383,23.61805534362793,175.83006286621094,1.40380859375,3.23486328125,0.42724609375,28.15312385559082,61.355079650878906,204.8738250732422,-0.9913561940193176,-0.09478577971458435,-0.0907115489244461
8516,-11.774273872375488,23.608062744140625,175.7560577392578,1.77001953125,2.38037109375,0.30517578125,28.290607452392578,61.52134323120117,204.9879608154297,-0.9922857880592346,-0.08766072988510132,-0.08766072988510132
8644,-11.875139236450195,23.601280212402344,175.70745849609375,2.01416015625,2.50244140625,0.3662109375,28.3903751373291,61.625579833984375,205.07952880859375,-0.9924283623695374,-0.08715002238750458,-0.08654898405075073
8770,-12.029610633850098,23.599720001220703,175.63624572753906,1.46484375,3.11279296875,0.91552734375,28.57390594482422,61.7769660949707,205.26004028320312,-0.9905260801315308,-0.10235236585140228,-0.09155316650867462
8948,-12.189131736755371,23.593387603759766,175.56475830078125,1.15966796875,2.86865234375,0.48828125,28.702049255371094,61.944583892822266,205.3798828125,-0.9907228946685791,-0.10339226573705673,-0.08819456398487091
9057,-12.30185604095459,23.59042739868164,175.51394653320312,0.732421875,3.173828125,0.48828125,28.769832611083984,62.05765151977539,205.45108032226562,-0.9902249574661255,-0.10810106247663498,-0.08814024180173874
9244,-12.41186237335205,23.576045989990234,175.46116638183594,1.220703125,2.5634765625,0.0,28.8198299407959,62.17347717285156,205.5129852294922,-0.9912800788879395,-0.0980045422911644,-0.08808457106351852
9361,-12.627685546875,23.556615829467773,175.36444091796875,0.8544921875,3.2958984375,0.8544921875,29.00941276550293,62.40211868286133,205.712158203125,-0.9895316958427429,-0.11606056243181229,-0.08577360957860947
9486,-12.930439949035645,23.731597900390625,175.26600646972656,-32.53173828125,30.8837890625,-2.0751953125,28.871784210205078,62.463104248046875,205.75291442871094,-0.9781894683837891,-0.12702688574790955,-0.16434618830680847
9657,-13.190174102783203,23.74690055847168,175.06947326660156,-3.0517578125,0.79345703125,-1.3427734375,27.96253776550293,62.54937744140625,204.9167022705078,-0.9887905120849609,-0.04554719477891922,-0.1421930491924286
9845,-12.863391876220703,23.779720306396484,175.1729278564453,27.28271484375,7.14111328125,20.69091796875,27.69615364074707,62.535240173339844,204.7165069580078,-0.9969471096992493,-0.06711394339799881,-0.03990228846669197
9970,-12.699252128601074,23.48272705078125,175.61788940429688,-21.54541015625,-28.564453125,2.13623046875,27.825336456298828,62.537437438964844,205.0370635986328,-0.9109225273132324,-0.09629298001527786,-0.4011828899383545
10079,-12.720366477966309,23.39508056640625,175.5686492919922,6.4697265625,0.9765625,1.0986328125,28.379545211791992,62.62257766723633,205.44198608398438,-0.9718900918960571,-0.07830889523029327,-0.22203011810779572
10204,-12.895925521850586,23.406190872192383,175.47425842285156,1.220703125,3.41796875,-0.244140625,29.13404655456543,62.73088836669922,206.13775634765625,-0.9625481367111206,-0.15874610841274261,-0.21977461874485016
10329,-13.013035774230957,23.408809661865234,175.41090393066406,0.79345703125,3.23486328125,-0.48828125,29.339487075805664,62.81074142456055,206.3533477783203,-0.9657578468322754,-0.14353139698505402,-0.21612606942653656
10446,-13.127181053161621,23.4007568359375,175.3514862060547,0.3662109375,2.685546875,-1.03759765625,29.461294174194336,62.938690185546875,206.46656799316406,-0.9713403582572937,-0.14616042375564575,-0.18744327127933502
10630,-13.253666877746582,23.390316009521484,175.28753662109375,-0.1220703125,2.74658203125,-0.8544921875,29.49905776977539,63.07954406738281,206.50257873535156,-0.9757896661758423,-0.13631053268909454,-0.17103782296180725
10810,-13.407011985778809,23.36688995361328,175.216552734375,1.708984375,2.5634765625,0.54931640625,29.63109588623047,63.28266143798828,206.60330200195312,-0.9715450406074524,-0.14088834822177887,-0.19039610028266907
10930,-13.504263877868652,23.345300674438477,175.17129516601562,1.953125,2.13623046875,0.67138671875,29.7424373626709,63.412227630615234,206.68814086914062,-0.9743966460227966,-0.1410059779882431,-0.1751241832971573
11050,-13.63782787322998,23.330078125,175.10826110839844,3.7841796875,1.89208984375,1.15966796875,29.77351188659668,63.597721099853516,206.72445678710938,-0.9802998900413513,-0.10707538574934006,-0.16597287356853485
11170,-13.811060905456543,23.34287452697754,175.0120849609375,3.2958984375,1.64794921875,-0.30517578125,29.844579696655273,63.83449935913086,206.76527404785156,-0.978405237197876,-0.11459880322217941,-0.17201808094978333
11290,-13.901004791259766,23.366336822509766,174.95936584472656,4.45556640625,3.72314453125,0.9765625,29.964832305908203,63.953678131103516,206.8343505859375,-0.9779097437858582,-0.12192463129758835,-0.16978514194488525
11410,-13.99457836151123,23.381813049316406,174.9115447998047,1.77001953125,2.0751953125,0.18310546875,29.88982391357422,64.11714172363281,206.6952362060547,-0.9773566722869873,-0.11220116913318634,-0.1794012188911438
11590,-14.102356910705566,23.400163650512695,174.8612518310547,1.220703125,2.5634765625,0.42724609375,30.008068084716797,64.25870513916016,206.73426818847656,-0.9741141200065613,-0.11750341206789017,-0.19311848282814026
11710,-14.26588249206543,23.443567276000977,174.7822265625,1.64794921875,2.685546875,0.1220703125,30.131793975830078,64.44701385498047,206.8036651611328,-0.9807942509651184,-0.08713124692440033,-0.17450153827667236
11890,-14.371170997619629,23.47526741027832,174.73094177246094,2.13623046875,2.44140625,0.54931640625,30.231998443603516,64.55615234375,206.87461853027344,-0.9809114336967468,-0.08038490265607834,-0.17706242203712463
12010,-14.51070499420166,23.523834228515625,174.66241455078125,3.173828125,2.62451171875,1.46484375,30.379852294921875,64.71488952636719,206.96156311035156,-0.9792808890342712,-0.08147674798965454,-0.1853926032781601
12130,-14.647252082824707,23.572513580322266,174.60475158691406,2.3193359375,3.23486328125,2.01416015625,30.49013900756836,64.87052917480469,207.02015686035156,-0.9755920171737671,-0.0931711420416832,-0.1988452523946762
12250,-14.810480117797852,23.612348556518555,174.5305633544922,1.40380859375,3.7841796875,0.9765625,30.487119674682617,65.02045440673828,207.0186004638672,-0.9774713516235352,-0.06317480653524399,-0.20139217376708984
12370,-14.926886558532715,23.63190460205078,174.47467041015625,0.3662109375,3.7841796875,0.18310546875,30.50882911682129,65.11884307861328,207.06619262695312,-0.9801742434501648,-0.06388002634048462,-0.18755753338336945
12490,-15.0896635055542,23.632230758666992,174.40306091308594,0.79345703125,2.50244140625,0.42724609375,30.62131690979004,65.34420013427734,207.15676879882812,-0.9763122797012329,-0.050871625542640686,-0.21030071377754211
12610,-15.201277732849121,23.621822357177734,174.35043334960938,0.79345703125,1.89208984375,0.0,30.797988891601562,65.54422760009766,207.30343627929688,-0.9838865995407104,-0.06404702365398407,-0.16692854464054108
12730,-15.330248832702637,23.631877899169922,174.28147888183594,0.18310546875,4.7607421875,-1.40380859375,30.659893035888672,65.67649841308594,207.33106994628906,-0.9851484894752502,-0.06353829801082611,-0.15951648354530334
12850,-15.485467910766602,23.57473373413086,174.1250762939453,-8.30078125,7.568359375,-17.76123046875,30.159603118896484,65.8902816772461,206.90609741210938,-0.9878929853439331,-0.018926046788692474,-0.15397858619689941
12970,-15.469657897949219,23.584182739257812,173.86668395996094,15.7470703125,12.6953125,2.74658203125,30.65888214111328,66.00474548339844,207.31446838378906,-0.9767327308654785,-0.17636607587337494,-0.1220172569155693
13090,-15.497650146484375,23.777294158935547,173.80909729003906,-14.34326171875,29.4189453125,-1.03759765625,31.65367889404297,65.96495056152344,208.33018493652344,-0.9869112968444824,0.031070545315742493,-0.15824300050735474
13210,-15.618423461914062,23.923826217651367,173.6117706298828,-11.474609375,1.46484375,-24.23095703125,32.51990509033203,65.93922424316406,209.0533447265625,-0.9592950940132141,0.18353377282619476,-0.2146351933479309
13450,-15.396728515625,23.660263061523438,173.7383575439453,10.6201171875,-22.94921875,7.080078125,32.450923919677734,66.0488052368164,208.89761352539062,-0.9704717397689819,-0.04286433383822441,-0.23737573623657227
13570,-15.114063262939453,23.59142303466797,173.83839416503906,7.62939453125,-0.06103515625,3.0517578125,32.27336502075195,66.21561431884766,208.58221435546875,-0.9800663590431213,-0.06178445369005203,-0.188819020986557
13690,-15.110095977783203,23.5109920501709,173.834716796875,3.0517578125,2.197265625,1.0986328125,32.197044372558594,66.30325317382812,208.4558868408203,-0.970458447933197,-0.06798785924911499,-0.23149093985557556
13810,-15.127009391784668,23.400531768798828,173.8075714111328,2.50244140625,2.99072265625,0.8544921875,32.653072357177734,66.46006774902344,208.82041931152344,-0.969432532787323,-0.08471585065126419,-0.23026873171329498
13930,-15.240660667419434,23.3155460357666,173.74380493164062,0.54931640625,2.685546875,-0.54931640625,32.784576416015625,66.71741485595703,208.91075134277344,-0.9750540852546692,-0.04708866775035858,-0.21691472828388214
14050,-15.29001522064209,23.239038467407227,173.7115478515625,1.5869140625,1.8310546875,-0.3662109375,32.99400329589844,66.88822937011719,209.09107971191406,-0.9821906685829163,-0.04829850792884827,-0.18157333135604858
14170,-15.356184959411621,23.18892478942871,173.66770935058594,0.67138671875,3.5400390625,-0.8544921875,33.181358337402344,67.04198455810547,209.24078369140625,-0.9805912375450134,-0.05182955041527748,-0.18908849358558655
14290,-15.480583190917969,23.102569580078125,173.5876007080078,1.77001953125,1.89208984375,-1.0986328125,33.4995002746582,67.26163482666016,209.47415161132812,-0.9857836365699768,-0.03766796365380287,-0.16374275088310242
14410,-15.583751678466797,23.076431274414062,173.52969360351562,1.3427734375,1.708984375,-0.6103515625,33.641693115234375,67.40274047851562,209.57949829101562,-0.9835253357887268,-0.03949514031410217,-0.17640359699726105
14529,-15.565849304199219,23.131019592285156,173.517822265625,1.52587890625,1.52587890625,-0.79345703125,33.82221603393555,67.54043579101562,209.7108917236328,-0.9886698722839355,-0.03050408326089382,-0.14697422087192535
14710,-15.558351516723633,23.22757911682129,173.50314331054688,0.3662109375,2.86865234375,-1.0986328125,33.93151092529297,67.687255859375,209.7850341796875,-0.9899159073829651,-0.021666446700692177,-0.13998933136463165
14998,-15.445732116699219,23.3721981048584,173.52687072753906,0.91552734375,3.23486328125,-0.1220703125,34.095970153808594,67.88471984863281,209.9336700439453,-0.9884747862815857,-0.006036118604242802,-0.15126512944698334
15121,-15.33763599395752,23.41134262084961,173.55532836914062,-1.220703125,4.94384765625,-1.28173828125,34.265018463134766,68.00093078613281,210.09779357910156,-0.9913267493247986,0.022532863542437553,-0.12947455048561096
15246,-15.17796802520752,23.470121383666992,173.59962463378906,-0.48828125,4.2724609375,-0.67138671875,34.48482131958008,68.16499328613281,210.3227996826172,-0.9928007125854492,-0.012743483297526836,-0.11909797787666321
15481,-14.803958892822266,23.4852352142334,173.7147979736328,1.708984375,2.8076171875,0.30517578125,34.968162536621094,68.47251892089844,210.76670837402344,-0.9910759925842285,-0.0026225249748677015,-0.1332719475030899
15658,-14.68390941619873,23.4765567779541,173.7545623779297,1.40380859375,3.173828125,0.6103515625,35.12993621826172,68.56575775146484,210.92066955566406,-0.9900137782096863,-0.010793608613312244,-0.14055676758289337
15783,-14.577836990356445,23.44931411743164,173.78955078125,1.28173828125,2.9296875,0.54931640625,35.278961181640625,68.66512298583984,211.06356811523438,-0.9897290468215942,-0.004188695922493935,-0.14289437234401703
15908,-14.332069396972656,23.369449615478516,173.86448669433594,1.40380859375,2.86865234375,0.3662109375,35.67160415649414,68.9123764038086,211.42132568359375,-0.9906775951385498,-0.015451264567673206,-0.13534829020500183
16080,-14.17844009399414,23.321714401245117,173.91273498535156,1.28173828125,2.99072265625,0.30517578125,35.898109436035156,69.06329345703125,211.6311492919922,-0.9901736974716187,-0.007923310622572899,-0.13961833715438843
16205,-14.138587951660156,23.302881240844727,173.91653442382812,1.28173828125,2.8076171875,0.3662109375,36.132877349853516,69.21039581298828,211.8516387939453,-0.9906595349311829,-0.008543280884623528,-0.13609084486961365
16330,-14.041027069091797,23.274538040161133,173.9469757080078,1.46484375,2.9296875,0.42724609375,36.29104232788086,69.3094253540039,211.99655151367188,-0.9907375574111938,-0.008984923362731934,-0.13549265265464783
16440,-14.048628807067871,23.26698112487793,173.92991638183594,1.40380859375,2.9296875,0.30517578125,36.54323196411133,69.4605941772461,212.2240447998047,-0.9903225898742676,-0.003939800430089235,-0.13872873783111572
16565,-13.955743789672852,23.30900001525879,173.9519500732422,1.46484375,2.685546875,0.3662109375,36.795658111572266,69.61068725585938,212.45143127441406,-0.9903725385665894,-0.0007209700415842235,-0.13842624425888062
16689,-13.978137969970703,23.260215759277344,173.93496704101562,1.46484375,2.86865234375,0.42724609375,36.95941162109375,69.70960998535156,212.6038818359375,-0.9902181625366211,-0.002032320247963071,-0.1395128071308136
16799,-13.991694450378418,23.295259475708008,173.9210205078125,0.9765625,3.173828125,0.30517578125,37.123191833496094,69.8065185546875,212.75994873046875,-0.9903548359870911,-0.007086832541972399,-0.13837340474128723
16924,-13.910624504089355,23.278135299682617,173.9444122314453,1.3427734375,3.0517578125,0.42724609375,37.301517486572266,69.9051284790039,212.9264373779297,-0.9901655912399292,-0.005164619535207748,-0.13980504870414734
17039,-13.894316673278809,23.25651741027832,173.93658447265625,1.3427734375,2.99072265625,0.1220703125,37.572601318359375,70.05387115478516,213.17449951171875,-0.9907904863357544,-0.0025226236321032047,-0.1353808045387268
17164,-13.768383026123047,23.327892303466797,173.977783203125,1.28173828125,2.9296875,0.3662109375,37.74863815307617,70.15619659423828,213.33592224121094,-0.9908979535102844,0.00011997795809293166,-0.13461527228355408
17337,-13.742419242858887,23.327436447143555,173.979248046875,1.3427734375,2.9296875,0.30517578125,37.93212127685547,70.254638671875,213.50225830078125,-0.9911256432533264,-0.002528074663132429,-0.13290449976921082
17461,-13.707001686096191,23.25355339050293,173.9848175048828,1.40380859375,2.9296875,0.48828125,38.11619567871094,70.35057830810547,213.67027282714844,-0.9910824298858643,-0.0006002194713801146,-0.1332487314939499
17586,-13.772705078125,23.331985473632812,173.94546508789062,1.3427734375,2.9296875,0.06103515625,38.384239196777344,70.49968719482422,213.91734313964844,-0.9915701150894165,0.002886666916310787,-0.12953917682170868
17711,-13.689523696899414,23.342384338378906,173.96817016601562,1.0986328125,3.173828125,0.3662109375,38.63999938964844,70.64579772949219,214.16012573242188,-0.9909722805023193,0.0017969758482649922,-0.13405440747737885
17821,-13.589569091796875,23.304645538330078,174.00003051757812,1.28173828125,2.86865234375,0.48828125,38.826725006103516,70.73979187011719,214.3307647705078,-0.9911912083625793,0.004812775645405054,-0.1323513388633728
17946,-13.498136520385742,23.35911750793457,174.02410888671875,1.52587890625,2.62451171875,0.54931640625,39.10878372192383,70.8780746459961,214.58743286132812,-0.9914115071296692,0.002412487054243684,-0.13075679540634155
18070,-13.595480918884277,23.34143829345703,173.97921752929688,1.220703125,3.0517578125,0.48828125,39.28017807006836,70.97541046142578,214.74923706054688,-0.9908396601676941,0.003836281830444932,-0.1349891722202301
18180,-13.604536056518555,23.266225814819336,173.96768188476562,1.28173828125,3.173828125,0.3662109375,39.463172912597656,71.0705337524414,214.92022705078125,-0.9906466007232666,0.00432964414358139,-0.1363837867975235
18305,-13.550315856933594,23.248205184936523,173.98074340820312,1.5869140625,2.99072265625,0.54931640625,39.66016387939453,71.1610336303711,215.10012817382812,-0.990486741065979,0.0021592299453914165,-0.1375909298658371
18430,-13.63497543334961,23.24622917175293,173.93679809570312,1.46484375,3.11279296875,0.48828125,39.94028854370117,71.29926300048828,215.3619384765625,-0.9899782538414001,0.005399881396442652,-0.1411169022321701
18539,-13.61078929901123,23.26869010925293,173.93862915039062,1.40380859375,3.0517578125,0.54931640625,40.129425048828125,71.39002990722656,215.5367889404297,-0.9906485080718994,-0.0002404194965492934,-0.1364380568265915
18670,-13.676156044006348,23.242021560668945,173.90548706054688,1.52587890625,2.9296875,0.6103515625,40.32070541381836,71.48082733154297,215.71615600585938,-0.9900464415550232,0.004680786747485399,-0.14066363871097565
18790,-13.622983932495117,23.292415618896484,173.91830444335938,1.40380859375,2.86865234375,0.42724609375,40.51731872558594,71.57433319091797,215.89784240722656,-0.9903002977371216,0.00685453787446022,-0.1387743204832077
18910,-13.543094635009766,23.307174682617188,173.93577575683594,3.23486328125,2.25830078125,0.79345703125,40.83538055419922,71.71763610839844,216.17518615722656,-0.9912528991699219,-0.00035993207711726427,-0.13197508454322815
19030,-13.556366920471191,23.38006591796875,173.92520141601562,2.44140625,2.13623046875,1.0986328125,41.048370361328125,71.8184585571289,216.34873962402344,-0.9894576668739319,-0.0009614552836865187,-0.1448192000389099
19150,-13.652862548828125,23.427852630615234,173.88058471679688,1.0986328125,2.44140625,0.18310546875,41.17369079589844,71.93209838867188,216.4626007080078,-0.9888902306556702,0.007138283457607031,-0.14847630262374878
19270,-13.776405334472656,23.5733699798584,173.82540893554688,-10.498046875,8.36181640625,-1.8310546875,41.28596496582031,72.02587890625,216.68650817871094,-0.9906060695648193,0.02939276210963726,-0.13355045020580292
19390,-14.02009391784668,23.809627532958984,173.5771484375,-12.39013671875,12.75634765625,-31.6162109375,41.22941970825195,72.12389373779297,216.68988037109375,-0.8726434111595154,0.45849862694740295,-0.16814425587654114
19511,-13.988713264465332,23.668560028076172,173.70166015625,-4.69970703125,-24.35302734375,9.1552734375,40.333900451660156,72.41761016845703,215.77301025390625,-0.9892154932022095,0.06555270403623581,-0.13097934424877167
19690,-13.700087547302246,23.559463500976562,173.9179229736328,37.53662109375,-8.056640625,29.296875,40.118133544921875,72.5158462524414,215.60626220703125,-0.9321631193161011,-0.32406020164489746,-0.1614217311143875
19810,-13.408110618591309,23.711030960083008,174.04502868652344,-1.28173828125,13.916015625,5.18798828125,41.75392532348633,72.24512481689453,217.1953125,-0.9879163503646851,0.10347846895456314,-0.11538498848676682
19930,-13.36108684539795,23.70220184326172,174.07382202148438,7.32421875,4.45556640625,4.82177734375,42.422271728515625,72.02088165283203,217.9669189453125,-0.9401288628578186,-0.1828375905752182,-0.2876250445842743
20050,-13.210953712463379,23.781490325927734,174.14796447753906,22.705078125,12.0849609375,12.02392578125,43.55190658569336,71.90791320800781,219.099853515625,-0.9509230852127075,-0.17260411381721497,-0.25681325793266296
20170,-13.289724349975586,23.745929718017578,174.12149047851562,5.9814453125,3.23486328125,3.23486328125,43.88375473022461,71.91703796386719,219.46295166015625,-0.9625840187072754,-0.14033442735671997,-0.23181523382663727
20290,-13.42381477355957,23.709739685058594,174.0767822265625,0.54931640625,2.197265625,2.62451171875,44.51702117919922,71.95217895507812,220.09234619140625,-0.9519805908203125,-0.18607500195503235,-0.24312344193458557
20410,-13.490045547485352,23.688486099243164,174.0535125732422,2.62451171875,2.3193359375,2.50244140625,44.965675354003906,71.96035766601562,220.56851196289062,-0.9429109692573547,-0.2197798639535904,-0.2502312958240509
20590,-13.682287216186523,23.640670776367188,174.02903747558594,-13.916015625,2.197265625,-1.15966796875,45.66511535644531,72.01829528808594,221.26025390625,-0.9636077284812927,-0.16180413961410522,-0.21278990805149078
20710,-13.866637229919434,24.175392150878906,173.933837890625,1.89208984375,62.5,0.244140625,47.29526138305664,71.97695922851562,222.7611083984375,-0.981757402420044,-0.009296316653490067,-0.18991047143936157
20831,-14.149025917053223,24.11974334716797,173.7304229736328,-16.78466796875,-11.53564453125,-1.40380859375,46.65946578979492,72.28845977783203,222.2609100341797,-0.9989591240882874,0.032556336373090744,-0.03195120021700859
21011,-14.04404354095459,24.02828598022461,173.77630615234375,10.43701171875,-0.48828125,-9.70458984375,44.47669219970703,73.0344467163086,220.23829650878906,-0.9087328910827637,-0.34281471371650696,-0.23808130621910095
21130,-14.109100341796875,23.90294647216797,173.61293029785156,14.95361328125,-0.18310546875,5.126953125,44.00213623046875,73.24627685546875,219.69117736816406,-0.9161525964736938,-0.38291776180267334,-0.11848385632038116
21311,-13.687089920043945,23.65768814086914,173.98951721191406,12.939453125,5.0048828125,7.32421875,45.04309844970703,73.16614532470703,220.6274871826172,-0.9972112774848938,-0.06207661330699921,0.04142466560006142
21429,-13.613604545593262,23.671024322509766,174.0606689453125,6.40869140625,5.18798828125,6.65283203125,45.774051666259766,73.20915985107422,221.20388793945312,-0.9656491279602051,-0.10123647749423981,-0.23931753635406494
21550,-13.567111015319824,23.723514556884766,174.0530548095703,21.1181640625,17.7001953125,8.544921875,46.46708679199219,73.32740783691406,221.7692108154297,-0.973749041557312,-0.14869588613510132,-0.172343909740448
21671,-14.031891822814941,24.066286087036133,172.9168701171875,-40.83251953125,28.50341796875,-145.44677734375,49.38557052612305,73.42250061035156,223.7147216796875,-0.9952369928359985,0.08017846196889877,-0.055450521409511566
21791,-14.688791275024414,23.825519561767578,171.25682067871094,23.49853515625,2.5634765625,-119.20166015625,51.49065017700195,73.55833435058594,224.69161987304688,-0.9961622357368469,0.007386922836303711,-0.08721334487199783
21971,-14.877519607543945,23.580841064453125,170.167724609375,15.19775390625,6.77490234375,-107.84912109375,53.08742904663086,73.80758666992188,225.37681579589844,-0.979534387588501,-0.16227400302886963,-0.11907793581485748
22091,-15.188191413879395,23.178255081176758,167.6997528076172,48.095703125,11.77978515625,-167.17529296875,57.34878921508789,73.78227996826172,227.59571838378906,-0.9072189331054688,-0.21933186054229736,-0.3589531481266022
22331,-14.712389945983887,22.839929580688477,166.80621337890625,100.9521484375,-44.61669921875,4.8828125,58.677459716796875,73.74964904785156,228.0053253173828,-0.9169286489486694,-0.33362606167793274,-0.2189420908689499
22450,-14.233268737792969,22.764781951904297,166.9857635498047,6.103515625,-0.06103515625,-1.03759765625,58.16233444213867,73.89387512207031,227.2586669921875,-0.9778199195861816,-0.12371645122766495,-0.16900445520877838
22571,-14.003375053405762,22.826311111450195,167.02110290527344,13.0615234375,0.9765625,2.86865234375,58.353843688964844,73.98373413085938,227.21849060058594,-0.9701034426689148,-0.0989316999912262,-0.22161178290843964
22691,-14.158700942993164,23.039823532104492,166.91844177246094,-8.85009765625,8.30078125,-12.26806640625,58.30739212036133,74.2756576538086,227.2111358642578,-0.976103663444519,0.014509332366287708,-0.21682091057300568
22800,-14.203712463378906,23.12812042236328,166.79579162597656,1.5869140625,14.70947265625,-3.23486328125,58.15972900390625,74.4926986694336,227.07252502441406,-0.9720017910003662,-0.031016316264867783,-0.2329172044992447
22988,-14.292035102844238,23.02031707763672,166.70359802246094,-5.7373046875,-3.173828125,-7.6904296875,57.85804748535156,75.02606201171875,226.594970703125,-0.9494913816452026,-0.22478188574314117,-0.2189502716064453
23160,-14.523581504821777,22.84168815612793,166.40464782714844,-5.4931640625,5.55419921875,-15.80810546875,57.4570426940918,75.20697784423828,225.9854736328125,-0.8694058656692505,-0.4550647437572479,0.19248251616954803
23347,-14.390344619750977,22.925477981567383,166.1486358642578,32.958984375,40.771484375,-11.04736328125,59.46401596069336,74.95632934570312,227.78932189941406,-0.9807227849960327,-0.18841472268104553,-0.0517943874001503
23519,-14.574480056762695,23.18376922607422,166.1046142578125,-11.3525390625,-6.34765625,27.40478515625,63.039913177490234,74.34578704833984,231.3090057373047,-0.9730209112167358,0.07242358475923538,-0.21905457973480225
23644,-14.193692207336426,23.90976333618164,165.52243041992188,-7.4462890625,23.4375,-29.4189453125,66.21975708007812,73.83721160888672,234.07618713378906,-0.9602901935577393,0.17076018452644348,-0.22064386308193207
23769,-13.97521686553955,23.172292709350586,165.3975372314453,7.32421875,-42.3583984375,8.36181640625,64.79706573486328,74.38141632080078,232.310302734375,-0.9277583956718445,-0.27359747886657715,-0.2537889778614044
23948,-14.056963920593262,22.794254302978516,165.41900634765625,6.2255859375,-5.67626953125,-1.220703125,63.71605682373047,75.00625610351562,230.89332580566406,-0.964801549911499,-0.11866350471973419,-0.23468470573425293
24057,-14.16646671295166,22.747079849243164,165.3492431640625,2.25830078125,-1.3427734375,-3.173828125,63.166805267333984,75.32855987548828,230.24887084960938,-0.9670693874359131,-0.0770992711186409,-0.24255406856536865
24182,-14.299385070800781,22.69681739807129,165.24790954589844,0.54931640625,-4.33349609375,-7.01904296875,62.667171478271484,75.72293090820312,229.58566284179688,-0.9748703837394714,0.039274703711271286,-0.21928375959396362
24297,-14.412978172302246,21.7899112701416,165.205810546875,-3.84521484375,-109.55810546875,-23.74267578125,60.770599365234375,77.01844024658203,227.08164978027344,-0.9882280826568604,-0.12858018279075623,-0.08289925009012222
24485,-14.783846855163574,20.894861221313477,164.73910522460938,-33.14208984375,13.85498046875,-108.88671875,59.42279052734375,77.58367156982422,225.63729858398438,-0.6338145732879639,-0.7733448147773743,-0.014731517992913723
24660,-15.053622245788574,21.785951614379883,164.4971466064453,-20.3857421875,125.91552734375,-2.5634765625,62.26589584350586,76.96942901611328,228.76829528808594,-0.9874444603919983,-0.021261025220155716,-0.15652887523174286
24843,-15.032066345214844,23.03009605407715,164.4026336669922,16.54052734375,105.46875,29.9072265625,66.25050354003906,75.98036193847656,233.07862854003906,-0.9342845678329468,0.12273366004228592,-0.3347369432449341
24968,-14.164384841918945,24.450977325439453,164.16323852539062,41.32080078125,68.359375,-14.95361328125,71.31655883789062,74.03441619873047,237.78326416015625,-0.9528312683105469,0.28293097019195557,-0.10983067750930786
25151,-14.097136497497559,24.053550720214844,164.53579711914062,-8.11767578125,-97.0458984375,-0.67138671875,69.663330078125,74.654541015625,236.53875732421875,-0.9663045406341553,-0.10403236746788025,-0.2354416698217392
25261,-14.557968139648438,23.40009117126465,164.5537109375,-16.29638671875,-10.986328125,-7.080078125,68.22809600830078,75.5067138671875,234.9593505859375,-0.9748414158821106,-0.11964614689350128,-0.1880665421485901
25448,-14.498125076293945,23.312000274658203,164.56080627441406,0.48828125,-0.91552734375,-2.9296875,67.98165130615234,75.94338989257812,234.54920959472656,-0.9627867341041565,-0.0564274899661541,-0.26430588960647583
25558,-14.223762512207031,23.236740112304688,164.60609436035156,9.521484375,-9.27734375,-1.40380859375,67.62020111083984,76.72803497314453,233.86981201171875,-0.9686121940612793,0.02563043124973774,-0.24725186824798584
25683,-14.6353759765625,21.96683692932129,164.58082580566406,-71.22802734375,-160.33935546875,-45.0439453125,65.51770782470703,78.20236206054688,231.45016479492188,-0.9842538833618164,-0.12323429435491562,-0.12671823799610138
25917,-15.11153793334961,21.716787338256836,164.10397338867188,37.29248046875,142.02880859375,55.96923828125,66.0362548828125,78.13764190673828,232.14305114746094,-0.8953536748886108,-0.4384288191795349,-0.07824305444955826
26042,-14.637918472290039,23.471736907958984,163.72474670410156,38.51318359375,166.56494140625,-33.63037109375,70.84734344482422,76.69051361083984,236.9457244873047,-0.9762772917747498,0.1384526640176773,-0.16647383570671082
26229,-14.215654373168945,24.320615768432617,163.89291381835938,24.10888671875,65.00244140625,32.53173828125,73.69972229003906,75.45401000976562,239.93145751953125,-0.9664547443389893,0.19400878250598907,-0.16830262541770935
26339,-13.730917930603027,24.633670806884766,163.9413299560547,14.16015625,-118.65234375,-71.77734375,74.77228546142578,74.91845703125,241.15065002441406,-0.9846773147583008,0.08347638696432114,0.15310831367969513
26464,-13.769208908081055,24.093521118164062,163.99330139160156,-41.6259765625,-42.96875,-6.65283203125,73.74451446533203,75.36751556396484,240.048095703125,-0.9865953922271729,-0.1500086486339569,-0.06424187123775482
26651,-13.764119148254395,23.66744041442871,164.00730895996094,3.35693359375,-12.6953125,-3.84521484375,72.94995880126953,76.16291809082031,238.98690795898438,-0.950574517250061,-0.1603652834892273,-0.26587820053100586
26831,-13.868364334106445,23.479427337646484,163.9213409423828,1.5869140625,-13.5498046875,-8.6669921875,72.58197021484375,76.61686706542969,238.48947143554688,-0.9626461267471313,-0.04348401352763176,-0.26724791526794434
26951,-13.967788696289062,23.266733169555664,163.8248748779297,3.90625,-26.123046875,-10.1318359375,72.2369384765625,77.25688171386719,237.89430236816406,-0.984885036945343,0.01630036160349846,-0.17244067788124084
27131,-14.294288635253906,20.718120574951172,163.6519775390625,-12.02392578125,-86.9140625,-79.65087890625,70.0977783203125,79.28041076660156,235.21542358398438,-0.5233432650566101,-0.8521102070808411,0.004473019391298294
27251,-14.548086166381836,23.01833152770996,163.29916381835938,27.2216796875,200.8056640625,10.43701171875,75.42095184326172,77.54122161865234,241.00457763671875,-0.9771767854690552,-0.013511364348232746,-0.21199767291545868
27431,-14.132984161376953,24.392284393310547,163.5881805419922,9.46044921875,77.5146484375,42.48046875,78.97784423828125,75.88946533203125,244.91934204101562,-0.9076640605926514,0.2869449257850647,-0.3062819838523865
27551,-13.925485610961914,24.805858612060547,163.7999725341797,15.80810546875,-126.64794921875,-4.2724609375,79.18836212158203,75.50559997558594,245.5262451171875,-0.8580073118209839,0.5098199248313904,-0.06250758469104767
27671,-13.979251861572266,24.212100982666016,163.9361572265625,-14.16015625,-38.57421875,-6.103515625,78.21678161621094,75.9806137084961,244.48731994628906,-0.9787977337837219,-0.17039339244365692,-0.11367122828960419
27791,-14.029731750488281,23.98152732849121,163.92388916015625,-0.1220703125,-3.662109375,-1.0986328125,77.69654083251953,76.49629974365234,243.88375854492188,-0.9710848927497864,-0.12784388661384583,-0.20161846280097961
27911,-14.184619903564453,23.782447814941406,163.8166046142578,-2.8076171875,-5.37109375,-8.056640625,77.59709930419922,77.11534881591797,243.6272430419922,-0.9728902578353882,-0.041422054171562195,-0.2275279462337494
28150,-14.098816871643066,23.69116973876953,163.81719970703125,4.2724609375,-19.34814453125,-5.0048828125,77.7146224975586,77.79829406738281,243.54579162597656,-0.9758036136627197,0.0529339499771595,-0.21214455366134644
28271,-14.350067138671875,22.68016815185547,163.7686004638672,-28.74755859375,-136.77978515625,-37.841796875,77.46810913085938,78.93263244628906,242.93804931640625,-0.960693359375,-0.23029129207134247,-0.15502959489822388
28511,-15.59097957611084,20.985092163085938,163.2510528564453,-72.265625,-46.9970703125,-119.62890625,76.93785858154297,80.01846313476562,242.2006378173828,-0.6361831426620483,-0.7426841855049133,-0.20902428030967712
28691,-14.207399368286133,24.591392517089844,163.27239990234375,53.64990234375,66.46728515625,55.6640625,82.55315399169922,76.15980529785156,248.54310607910156,-0.9107320308685303,0.3415880501270294,-0.232130765914917
28800,-13.437203407287598,25.607303619384766,163.5513458251953,43.8232421875,72.08251953125,39.4287109375,83.42476654052734,75.14651489257812,249.4737548828125,-0.7628809213638306,0.6330251693725586,-0.13149839639663696
28917,-13.981219291687012,24.34034538269043,163.8079071044922,-26.2451171875,-20.01953125,-7.26318359375,81.90788269042969,76.24141693115234,247.96511840820312,-0.9733541011810303,-0.17476969957351685,-0.1484503448009491
29276,-14.037446022033691,24.188804626464844,163.80514526367188,2.99072265625,-0.54931640625,0.3662109375,81.87224578857422,76.82099914550781,247.7917022705078,-0.9517521262168884,-0.16498489677906036,-0.2587428390979767
29401,-14.132514953613281,24.03873062133789,163.74169921875,-2.62451171875,-3.7841796875,-4.7607421875,81.98041534423828,77.27804565429688,247.7510528564453,-0.9678830504417419,-0.037235334515571594,-0.24862834811210632
29651,-14.087780952453613,23.6903076171875,163.7134552001953,8.544921875,-20.93505859375,-4.21142578125,82.66889190673828,78.26940155029297,248.09698486328125,-0.9797940254211426,0.03227011114358902,-0.19738873839378357
29761,-14.725264549255371,23.01013946533203,162.84909057617188,67.56591796875,156.31103515625,29.296875,83.88258361816406,78.68067169189453,249.19818115234375,-0.9911410808563232,0.07109450548887253,-0.11218295246362686
29886,-13.857842445373535,24.784202575683594,162.8571319580078,31.31103515625,35.21728515625,32.77587890625,86.48062896728516,76.18470764160156,251.86558532714844,-0.9412822127342224,0.289783775806427,-0.1732432246208191
30010,-13.351279258728027,25.11456871032715,163.2450408935547,-81.54296875,-110.29052734375,-45.7763671875,85.89817810058594,75.95381164550781,251.72801208496094,-0.9118692874908447,0.14327406883239746,-0.38466474413871765
30245,-13.683789253234863,24.563430786132812,163.306640625,-13.48876953125,-26.3671875,-7.75146484375,85.56631469726562,76.49019622802734,251.28567504882812,-0.9695929288864136,-0.19271843135356903,-0.15082813799381256
30417,-13.69210147857666,24.330463409423828,163.31304931640625,-0.6103515625,-2.685546875,-1.40380859375,85.64306640625,77.11988830566406,251.22247314453125,-0.9595566391944885,-0.11836149543523788,-0.2554241120815277
30671,-13.620283126831055,24.222705841064453,163.31809997558594,2.8076171875,-2.25830078125,-2.74658203125,85.94251251220703,77.58018493652344,251.36270141601562,-0.9667341113090515,-0.06819532811641693,-0.24652491509914398
30911,-14.627350807189941,21.47005844116211,163.08287048339844,-116.63818359375,-226.13525390625,-79.77294921875,87.57003784179688,80.37728118896484,252.0845184326172,-0.888245165348053,0.18105344474315643,-0.4221849739551544
31031,-15.125475883483887,21.39470672607422,162.6029510498047,-14.16015625,76.11083984375,54.38232421875,87.4764404296875,80.33785247802734,251.96554565429688,-0.698473334312439,-0.6646791696548462,-0.26521047949790955
31331,-13.327041625976562,25.13664436340332,161.9156951904297,68.603515625,87.21923828125,-21.78955078125,89.42638397216797,75.86414337158203,253.88267517089844,-0.9202282428741455,0.36156100034713745,-0.1498454362154007
31451,-12.963393211364746,24.99631118774414,161.01272583007812,-61.8896484375,-89.41650390625,-65.5517578125,89.90467834472656,76.02861022949219,253.9493865966797,-0.8938860297203064,-0.4399716258049011,-0.0859803706407547
31571,-13.481146812438965,24.60685157775879,161.05308532714844,-32.77587890625,-21.1181640625,-6.04248046875,89.74858093261719,76.5443344116211,253.8532257080078,-0.9464526176452637,-0.1925612986087799,-0.25912854075431824
31691,-13.385181427001953,24.152057647705078,161.04180908203125,3.47900390625,-5.55419921875,-4.638671875,91.97702026367188,77.7790298461914,255.4509735107422,-0.9582879543304443,-0.055409643799066544,-0.2803820073604584
31870,-13.344400405883789,23.933147430419922,161.02374267578125,4.45556640625,-19.775390625,-6.7138671875,92.90055847167969,78.53667449951172,256.1293029785156,-0.9598874449729919,0.02743375301361084,-0.27904045581817627
32051,-13.829963684082031,22.72589874267578,160.7679901123047,-56.396484375,-165.46630859375,-73.91357421875,93.90184783935547,79.63519287109375,256.3684997558594,-0.9454131722450256,-0.06409968435764313,-0.31950756907463074
32171,-14.503497123718262,21.685415267944336,159.76873779296875,94.66552734375,87.40234375,3.84521484375,93.08462524414062,79.62765502929688,254.56581115722656,-0.9381876587867737,-0.32003435492515564,-0.13184024393558502
32351,-13.204164505004883,23.359777450561523,158.12490844726562,110.04638671875,125.79345703125,-80.38330078125,92.0046615600586,77.07383728027344,252.407958984375,-0.9852482676506042,0.1711309552192688,-0.0003557816380634904
32471,-11.623509407043457,23.687789916992188,156.1131591796875,78.125,-23.92578125,6.28662109375,93.38621520996094,74.95686340332031,251.90135192871094,-0.9049040675163269,0.42405810952186584,-0.036378052085638046
32590,-12.155080795288086,23.10140609741211,155.52572631835938,-44.0673828125,-24.96337890625,-25.87890625,93.06251525878906,75.25663757324219,251.78240966796875,-0.9607318043708801,-0.1264442801475525,-0.2469944804906845
32707,-12.519312858581543,22.945682525634766,155.46661376953125,-13.427734375,1.708984375,-2.13623046875,94.21292114257812,75.66796112060547,252.8173370361328,-0.9357731938362122,-0.21363741159439087,-0.28051310777664185
32831,-12.50976848602295,22.82194709777832,155.46348571777344,-0.6103515625,-0.42724609375,-2.99072265625,95.12821197509766,75.90646362304688,253.62684631347656,-0.944631814956665,-0.12941819429397583,-0.3015322685241699
33004,-12.411933898925781,22.582984924316406,155.43746948242188,2.44140625,-2.13623046875,-4.5166015625,97.01631927490234,76.43854522705078,255.181884765625,-0.9543067216873169,-0.0987856537103653,-0.2820283770561218
33129,-12.528743743896484,22.372591018676758,155.21514892578125,-1.3427734375,-17.7001953125,-37.41455078125,98.64093017578125,77.2309341430664,256.4147644042969,-0.8736634850502014,-0.04063385725021362,-0.48483091592788696
33238,-12.767166137695312,21.740171432495117,153.30567932128906,57.43408203125,11.1083984375,-130.92041015625,99.12789916992188,77.44945526123047,255.1974334716797,-0.7160336375236511,-0.6692611575126648,0.1984574794769287
33478,-12.409220695495605,22.6157283782959,151.3324737548828,34.7900390625,70.556640625,-93.68896484375,99.37006378173828,74.96863555908203,253.48422241210938,-0.9834486842155457,0.032640404999256134,0.1782223880290985
33603,-12.212406158447266,22.952924728393555,150.3479461669922,43.02978515625,83.984375,-103.271484375,100.60336303710938,73.89017486572266,253.72889709472656,-0.9856045842170715,0.16879279911518097,0.009620869532227516
33906,-12.558032035827637,23.494752883911133,148.73634338378906,-6.34765625,62.68310546875,-120.66650390625,102.33939361572266,73.37397766113281,254.49441528320312,-0.9403819441795349,0.26131731271743774,-0.21770437061786652
34140,-12.693082809448242,22.232757568359375,148.2961883544922,5.18798828125,-16.357421875,0.732421875,103.7188491821289,74.20701599121094,255.39230346679688,-0.9388473033905029,-0.18845561146736145,-0.2881844639778137
34390,-12.635931015014648,22.089353561401367,148.30416870117188,9.33837890625,-10.1318359375,-0.91552734375,104.6567153930664,74.54224395751953,256.0654602050781,-0.9187175631523132,-0.20542752742767334,-0.33727994561195374
34562,-12.865945816040039,21.809738159179688,148.08018493652344,7.14111328125,-16.78466796875,-8.4228515625,107.50923919677734,75.83402252197266,258.31097412109375,-0.9685125946998596,0.08957529067993164,-0.23229211568832397
34691,-12.891237258911133,19.517314910888672,147.6149139404297,42.54150390625,-94.66552734375,-98.0224609375,110.9551010131836,77.61412048339844,260.57122802734375,-0.6659752130508423,-0.7216472625732422,-0.18895062804222107
34811,-12.481053352355957,22.858579635620117,146.93533325195312,40.83251953125,107.72705078125,55.48095703125,108.63661193847656,74.1695556640625,258.4674377441406,-0.9463987350463867,0.23460419476032257,-0.22201406955718994
34983,-11.510680198669434,24.14411163330078,146.74473571777344,75.0732421875,59.2041015625,-17.822265625,108.21414947509766,72.49874877929688,257.6920166015625,-0.9133124351501465,0.35821664333343506,-0.19375579059123993
35161,-11.236788749694824,24.115205764770508,147.2666778564453,-24.47509765625,-52.55126953125,52.8564453125,107.95614624023438,72.81000518798828,257.8774719238281,-0.8862976431846619,0.42724621295928955,-0.17870992422103882
35286,-11.781340599060059,22.78983497619629,147.2437744140625,-104.43115234375,-47.05810546875,-36.31591796875,107.28834533691406,73.68938446044922,257.71478271484375,-0.9989767074584961,-0.03568487986922264,0.027788225561380386
35520,-12.096949577331543,22.539400100708008,147.175048828125,-4.33349609375,-10.986328125,-5.4931640625,108.04959869384766,74.4085464477539,258.4639892578125,-0.9648464322090149,-0.14282424747943878,-0.22061890363693237
35708,-11.923356056213379,22.362178802490234,147.1779022216797,8.1787109375,-6.4697265625,-5.0048828125,110.18939208984375,75.23906707763672,260.23040771484375,-0.9813854098320007,-0.0758276954293251,-0.17644521594047546
36005,-12.24862003326416,21.293941497802734,146.9843292236328,-53.03955078125,-135.009765625,-57.0068359375,114.09062194824219,76.81742095947266,263.8826904296875,-0.9721607565879822,-0.19513332843780518,-0.12971705198287964
36130,-12.91137409210205,20.768577575683594,146.63912963867188,84.53369140625,144.59228515625,25.69580078125,112.59286499023438,76.67952728271484,262.375244140625,-0.9841527938842773,-0.10922389477491379,-0.13969027996063232
36302,-11.619698524475098,22.745216369628906,146.52212524414062,54.443359375,80.078125,40.0390625,109.08564758300781,74.2254409790039,258.6934509277344,-0.9690438508987427,0.19314973056316376,-0.15377624332904816
36427,-11.36462688446045,22.287683486938477,146.5900115966797,-12.02392578125,-29.052734375,-10.009765625,107.94019317626953,74.05074310302734,257.8053283691406,-0.9866645932197571,-0.062361009418964386,-0.15034672617912292
36611,-11.52219295501709,22.153541564941406,146.48675537109375,3.47900390625,-8.1787109375,-6.2255859375,109.33694458007812,74.71345520019531,258.8868408203125,-0.9563757181167603,-0.08622770756483078,-0.27912402153015137
37091,-11.621867179870605,22.10875129699707,146.36463928222656,8.11767578125,-12.6953125,-7.2021484375,111.1195297241211,75.48411560058594,260.350830078125,-0.9770737290382385,0.0250120609998703,-0.2114267498254776
37211,-11.636160850524902,21.679208755493164,146.35272216796875,4.150390625,-69.76318359375,-12.02392578125,112.9423599243164,76.36739349365234,261.94122314453125,-0.9799933433532715,0.029669295996427536,-0.19680632650852203
37691,-12.965782165527344,19.046669006347656,145.52674865722656,-49.6826171875,-41.56494140625,-159.1796875,116.2737808227539,77.8206787109375,264.58343505859375,-0.6742534637451172,-0.7365521192550659,-0.05360282585024834
37811,-10.655952453613281,23.434906005859375,145.05442810058594,5.55419921875,-71.77734375,-25.146484375,109.7430191040039,73.31050872802734,258.15185546875,-0.8800315856933594,-0.17782658338546753,-0.44036585092544556
38111,-10.892491340637207,22.983768463134766,145.0517578125,-5.0048828125,-20.69091796875,-4.150390625,110.30016326904297,73.88253784179688,258.611328125,-0.951072633266449,-0.23814737796783447,-0.1968420445919037
38472,-11.443344116210938,21.418058395385742,144.76510620117188,-27.40478515625,-176.08642578125,-31.494140625,116.8958511352539,76.86783599853516,264.0569152832031,-0.9901270866394043,-0.12017205357551575,-0.07215987890958786
38644,-11.766514778137207,19.44373893737793,144.3705291748047,72.509765625,-63.53759765625,-110.595703125,119.44296264648438,77.71640014648438,266.22442626953125,-0.6384567618370056,-0.7581261396408081,-0.13273145258426666
38831,-10.52893352508545,24.294240951538086,144.32884216308594,68.66455078125,94.42138671875,54.8095703125,113.8019790649414,73.05868530273438,261.0679626464844,-0.8729709982872009,0.4307287335395813,-0.22889849543571472
39071,-10.711149215698242,23.225839614868164,144.5856170654297,-0.8544921875,-8.6669921875,-5.31005859375,114.08914184570312,74.1290283203125,261.4872131347656,-0.9608461260795593,-0.18799950182437897,-0.20354561507701874
39311,-10.944382667541504,23.119577407836914,144.44552612304688,1.0986328125,-2.01416015625,-4.94384765625,115.58143615722656,74.77507781982422,262.7623291015625,-0.9702420830726624,-0.032423339784145355,-0.23995612561702728
39609,-11.058706283569336,23.000160217285156,144.3289794921875,7.01904296875,-21.728515625,-5.126953125,117.86322021484375,75.67072296142578,264.8341369628906,-0.9747171401977539,0.023977000266313553,-0.22215211391448975
39718,-12.361067771911621,20.232912063598633,143.50588989257812,-48.03466796875,83.251953125,-15.380859375,123.25042724609375,77.25251770019531,269.605712890625,-0.6921338438987732,-0.7090526819229126,-0.13488918542861938
39968,-10.98866081237793,23.97881317138672,143.66806030273438,69.091796875,159.60693359375,36.43798828125,117.52397918701172,73.7269515991211,264.2220153808594,-0.9446528553962708,0.28052428364753723,-0.17010930180549622
40077,-10.301417350769043,23.817319869995117,144.3036651611328,-28.3203125,-35.70556640625,-9.27734375,115.84719848632812,73.63713073730469,262.98040771484375,-0.9743385910987854,-0.13019277155399323,-0.18361395597457886
40202,-10.441296577453613,23.700551986694336,144.2727508544922,-0.244140625,-5.67626953125,-1.0986328125,116.55146789550781,74.0075454711914,263.5765686035156,-0.9273203611373901,-0.29144009947776794,-0.23481813073158264
40327,-10.76143741607666,23.476877212524414,144.0550079345703,0.9765625,-5.4931640625,-7.568359375,119.26969146728516,75.01439666748047,265.92864990234375,-0.972461998462677,-0.026324963197112083,-0.23157043755054474
40499,-10.829096794128418,23.288400650024414,143.9602508544922,9.1552734375,-23.3154296875,-9.70458984375,121.39521789550781,75.64231872558594,267.8584289550781,-0.9812465310096741,0.020015759393572807,-0.19171492755413055
40751,-11.051865577697754,22.10107421875,143.8941192626953,-21.54541015625,-170.5322265625,-29.296875,124.6081314086914,76.6521224975586,270.7549743652344,-0.9561451077461243,-0.23911543190479279,-0.169145867228508
40871,-12.361971855163574,20.910249710083008,143.19480895996094,-38.87939453125,101.318359375,11.16943359375,127.09642028808594,76.91050720214844,273.4596862792969,-0.7189448475837708,-0.6319122314453125,-0.2894914150238037
40991,-11.085610389709473,24.754623413085938,143.88853454589844,78.79638671875,63.53759765625,45.654296875,119.95751953125,72.97595977783203,267.06622314453125,-0.8955180048942566,0.3807838559150696,-0.23032818734645844
41171,-10.479331016540527,24.545631408691406,144.69113159179688,-10.7421875,-145.5078125,29.72412109375,119.09586334228516,73.0843734741211,266.6433410644531,-0.8538699746131897,-0.4684973657131195,0.2267516702413559
41291,-10.814352989196777,23.927322387695312,144.681884765625,-22.705078125,-40.1611328125,-15.13671875,119.56761169433594,73.65501403808594,267.1146240234375,-0.9770829081535339,-0.1257956176996231,-0.1717098504304886
41411,-10.968290328979492,23.80691909790039,144.61196899414062,-4.5166015625,-4.94384765625,-4.39453125,120.419921875,74.11853790283203,267.8863830566406,-0.963071346282959,-0.16416801512241364,-0.213406503200531
41532,-11.152462005615234,23.76349449157715,144.5105743408203,1.220703125,1.89208984375,-1.0986328125,122.11125946044922,74.80142211914062,269.4493713378906,-0.9651150703430176,-0.05771686136722565,-0.2553853690624237
41771,-11.272771835327148,23.689481735229492,144.42701721191406,2.50244140625,-7.14111328125,-4.82177734375,123.61380004882812,75.25894927978516,270.7955627441406,-0.9786168336868286,0.06452298909425735,-0.19530989229679108
41891,-11.313213348388672,23.396055221557617,144.3863067626953,8.9111328125,-38.0859375,-7.8125,125.93623352050781,75.78973388671875,272.8758850097656,-0.9808660745620728,0.0118230190128088,-0.19432419538497925
42011,-11.873773574829102,21.78229331970215,144.3097381591797,-88.19580078125,-221.6796875,-49.86572265625,129.32882690429688,76.71857452392578,276.061279296875,-0.9385900497436523,-0.11835432052612305,-0.3241002857685089
42252,-11.926361083984375,23.552297592163086,143.8882293701172,44.73876953125,190.3076171875,22.27783203125,125.37671661376953,74.83201599121094,272.48724365234375,-0.9902515411376953,0.0970052108168602,-0.09995927661657333
42431,-11.25214958190918,24.88224983215332,144.1371612548828,67.7490234375,74.89013671875,43.8232421875,122.4996337890625,73.0635757446289,269.75506591796875,-0.9008532762527466,0.37103894352912903,-0.22537419199943542
42551,-10.459311485290527,25.538623809814453,144.29307556152344,15.7470703125,22.27783203125,-31.18896484375,121.92324829101562,72.55049896240234,269.0587463378906,-0.7178217172622681,0.6486729383468628,-0.2528941035270691
42660,-10.977224349975586,24.226516723632812,144.46136474609375,-0.30517578125,-2.8076171875,-1.03759765625,123.35890197753906,73.99584197998047,270.64129638671875,-0.9476476311683655,-0.13139501214027405,-0.2910315692424774
42910,-11.146428108215332,24.06608772277832,144.34930419921875,-0.6103515625,-1.52587890625,-4.94384765625,124.84546661376953,74.5551528930664,271.9291687011719,-0.9673480987548828,-0.05425048992037773,-0.24757733941078186
43082,-11.2821683883667,23.882360458374023,144.23390197753906,5.67626953125,-12.14599609375,-1.8310546875,127.23717498779297,75.23833465576172,274.14495849609375,-0.9717622995376587,0.04721628874540329,-0.23118966817855835
43207,-11.353642463684082,23.422584533691406,144.19029235839844,3.35693359375,-64.3310546875,-14.7705078125,130.12242126464844,76.00598907470703,276.8918762207031,-0.9903208613395691,0.04005829617381096,-0.1328904926776886
43332,-12.55388069152832,20.884010314941406,143.42027282714844,-31.3720703125,83.06884765625,-30.45654296875,135.6073760986328,77.07792663574219,281.8536071777344,-0.7610869407653809,-0.6435253620147705,-0.08137407898902893
43566,-11.086943626403809,24.69843292236328,143.785400390625,62.8662109375,164.9169921875,42.17529296875,127.55726623535156,74.05586242675781,274.42047119140625,-0.9239033460617065,0.29906827211380005,-0.23866458237171173
43691,-10.238162994384766,25.617109298706055,144.28883361816406,82.03125,85.5712890625,70.9228515625,124.77269744873047,72.83600616455078,271.7552795410156,-0.8439266085624695,0.4849787652492523,-0.22931107878684998
43800,-10.043438911437988,25.719173431396484,144.41842651367188,-6.7138671875,-48.52294921875,18.12744140625,124.56123352050781,73.03335571289062,271.7657165527344,-0.9973418712615967,-0.06151401251554489,-0.03905493766069412
43978,-10.610845565795898,24.574798583984375,144.12130737304688,-9.521484375,-4.69970703125,-4.94384765625,126.32575988769531,74.12659454345703,273.5814514160156,-0.948259711265564,-0.22377917170524597,-0.22522523999214172
44291,-10.812721252441406,24.4763126373291,144.01707458496094,-6.28662109375,-0.42724609375,-4.82177734375,127.62564849853516,74.54977416992188,274.8395080566406,-0.9717387557029724,-0.0576191246509552,-0.22891922295093536
44400,-10.890857696533203,24.390735626220703,143.94143676757812,3.84521484375,-0.244140625,-4.21142578125,129.25125122070312,74.93489837646484,276.2865905761719,-0.9730663895606995,-0.031475648283958435,-0.22836588323116302
44652,-11.549750328063965,22.764183044433594,143.73709106445312,-93.1396484375,-181.94580078125,-48.03466796875,135.9532470703125,76.45934295654297,282.6781311035156,-0.9499452710151672,-0.12729470431804657,-0.2853069305419922
44892,-11.380735397338867,23.90937042236328,143.25296020507812,93.3837890625,198.2421875,15.19775390625,131.52935791015625,75.12348937988281,278.34869384765625,-0.9942942261695862,0.0890195295214653,-0.0587751679122448
45010,-10.21501350402832,25.991281509399414,143.84376525878906,88.0126953125,98.7548828125,69.580078125,126.11381530761719,72.83692169189453,273.1695556640625,-0.8810540437698364,0.42703890800476074,-0.2034245729446411
45192,-9.902738571166992,25.206588745117188,144.2718505859375,-23.74267578125,-43.76220703125,-9.1552734375,125.744140625,73.38287353515625,273.286376953125,-0.9390895962715149,-0.2556738257408142,-0.2296554446220398
45372,-10.305438041687012,24.774267196655273,144.0711669921875,1.708984375,-0.8544921875,-3.90625,128.2665252685547,74.33788299560547,275.45526123046875,-0.9624849557876587,-0.10745959728956223,-0.24914883077144623
45492,-10.417325019836426,24.726587295532227,143.99517822265625,1.77001953125,0.732421875,-2.01416015625,129.4371337890625,74.65809631347656,276.53363037109375,-0.9657576680183411,-0.07788562029600143,-0.2474791556596756
45612,-10.564523696899414,24.580854415893555,143.86993408203125,4.08935546875,-14.7705078125,-6.7138671875,132.20050048828125,75.33655548095703,279.20050048828125,-0.9849996566772461,0.071822889149189,-0.15689881145954132
45791,-11.507463455200195,22.163362503051758,143.8765411376953,-59.99755859375,-158.0810546875,-29.052734375,138.487060546875,76.68114471435547,285.59747314453125,-0.9517547488212585,0.12690849602222443,-0.2793872058391571
46032,-12.438594818115234,22.36094093322754,143.69981384277344,-83.55712890625,75.927734375,64.3310546875,139.32354736328125,76.37863159179688,286.84307861328125,-0.8419127464294434,-0.4288075268268585,-0.3275775611400604
46152,-12.468709945678711,24.2078857421875,144.026123046875,6.65283203125,192.2607421875,78.0029296875,136.496337890625,75.05342864990234,284.856689453125,-0.8901585936546326,0.02497628517448902,-0.454965740442276
46272,-11.58265495300293,26.528038024902344,144.90798950195312,45.8984375,70.068359375,-0.6103515625,130.7287139892578,72.72687530517578,279.5233154296875,-0.958174467086792,0.21685761213302612,-0.18674708902835846
46452,-11.226852416992188,27.24478530883789,144.36488342285156,12.26806640625,-11.29150390625,-29.72412109375,129.64126586914062,72.5737533569336,277.98126220703125,-0.9630643129348755,0.24890625476837158,-0.10272685438394547
46632,-11.422412872314453,26.56290054321289,144.1801300048828,-24.10888671875,-42.17529296875,-27.83203125,130.1873321533203,72.82394409179688,278.3258056640625,-0.7658851742744446,-0.5150727033615112,-0.3848637044429779
46752,-11.662313461303711,25.96202850341797,144.3228759765625,6.2255859375,-5.37109375,2.9296875,131.2175750732422,73.44514465332031,279.40283203125,-0.937473714351654,-0.17236383259296417,-0.30238017439842224
46872,-11.425677299499512,25.815799713134766,144.38296508789062,16.845703125,-4.150390625,0.91552734375,132.6102294921875,73.76473236083984,280.4546813964844,-0.9366689920425415,-0.15599019825458527,-0.31355729699134827
46991,-11.517447471618652,25.62905502319336,144.24514770507812,3.47900390625,-4.33349609375,-5.0048828125,135.1127471923828,74.32588958740234,282.6186218261719,-0.9433803558349609,-0.009157877415418625,-0.3315865397453308
47172,-11.595537185668945,25.477947235107422,144.1645050048828,6.8359375,-13.427734375,-4.69970703125,136.69932556152344,74.68218994140625,284.0249938964844,-0.9426168203353882,0.03132044896483421,-0.33240434527397156
47472,-11.657693862915039,24.758970260620117,144.06724548339844,7.50732421875,-98.44970703125,-25.7568359375,139.3845672607422,75.38226318359375,286.29443359375,-0.991558313369751,-0.014215276576578617,-0.12887945771217346
47592,-11.503108978271484,22.995563507080078,143.81661987304688,17.2119140625,-116.2109375,-83.251953125,142.9085693359375,76.2368392944336,289.2494201660156,-0.9434999823570251,0.05050542950630188,-0.3275010585784912
47832,-11.436954498291016,25.282835006713867,142.18719482421875,60.11962890625,214.9658203125,-53.3447265625,136.9014434814453,74.48783874511719,282.64080810546875,-0.9974272847175598,0.0629754289984703,-0.03424828127026558
47952,-10.652188301086426,27.484424591064453,141.095703125,-4.21142578125,-24.5361328125,-33.69140625,132.22891235351562,72.19112396240234,277.05145263671875,-0.8111163973808289,0.48714306950569153,-0.32370033860206604
48072,-11.060224533081055,26.060434341430664,140.84657287597656,-2.3193359375,-10.43701171875,0.244140625,133.1846923828125,73.12371826171875,278.2032165527344,-0.949758768081665,-0.22025597095489502,-0.22236368060112
48192,-11.151419639587402,25.9605712890625,140.8121795654297,1.40380859375,0.91552734375,-1.0986328125,134.8805389404297,73.59947967529297,279.696044921875,-0.9546328783035278,-0.15434256196022034,-0.25466522574424744
48312,-11.243560791015625,25.813888549804688,140.735107421875,-0.48828125,-7.14111328125,-7.568359375,136.28182983398438,73.9391098022461,280.96319580078125,-0.9555513262748718,-0.045615579932928085,-0.2912744879722595
48432,-11.357240676879883,25.441707611083984,140.5597686767578,10.07080078125,-25.08544921875,-11.29150390625,139.50009155273438,74.6408920288086,283.84722900390625,-0.9877085089683533,0.08845151215791702,-0.12887290120124817
48612,-11.516128540039062,24.171476364135742,140.56033325195312,-23.13232421875,-170.95947265625,-27.28271484375,143.1554412841797,75.39955139160156,287.0584716796875,-0.9668284058570862,-0.2196776121854782,-0.1303250789642334
48732,-12.336865425109863,22.25713539123535,140.04798889160156,-12.26806640625,-84.3505859375,-124.32861328125,145.89036560058594,75.83063507080078,289.6552734375,-0.6167979836463928,-0.7753875255584717,-0.13540472090244293
48972,-12.497117042541504,23.327146530151367,139.8174591064453,12.0849609375,176.20849609375,23.193359375,143.0143280029297,75.16665649414062,287.03302001953125,-0.9713332056999207,-0.16504700481891632,-0.17108865082263947
49212,-10.774788856506348,26.838407516479492,139.9175567626953,119.81201171875,117.00439453125,42.3583984375,134.06729125976562,72.0207290649414,278.00653076171875,-0.8796283006668091,0.4227479100227356,-0.21803297102451324
49332,-10.822422981262207,27.363933563232422,139.6949920654297,-54.5654296875,10.55908203125,-25.08544921875,133.47979736328125,71.86214447021484,277.3664855957031,-0.8033177852630615,0.5757110714912415,-0.15243785083293915
49452,-10.6085786819458,25.673124313354492,140.52244567871094,-3.90625,1.15966796875,0.54931640625,135.4584503173828,72.86634063720703,279.2067565917969,-0.9176193475723267,-0.27356457710266113,-0.2883353531360626
49632,-10.795307159423828,25.42839241027832,140.39146423339844,1.15966796875,-2.8076171875,-4.45556640625,138.60690307617188,73.65135192871094,282.11029052734375,-0.9651347994804382,-0.019941765815019608,-0.26099222898483276
49811,-10.860133171081543,25.23392677307129,140.31227111816406,6.4697265625,-14.83154296875,-4.94384765625,140.58685302734375,74.08908081054688,283.9514465332031,-0.9811508655548096,0.06000889837741852,-0.18368971347808838
49932,-11.283073425292969,23.416606903076172,140.17320251464844,-46.93603515625,-223.69384765625,-53.64990234375,145.88003540039062,75.1471176147461,289.0022888183594,-0.9509226679801941,-0.07603869587182999,-0.29994016885757446
50052,-12.191048622131348,22.96833038330078,139.2913818359375,0.6103515625,98.2666015625,66.5283203125,146.56158447265625,75.08106231689453,289.70635986328125,-0.7971051335334778,-0.45407742261886597,-0.39804160594940186
50172,-10.752989768981934,26.26523208618164,139.1786346435547,69.03076171875,96.8017578125,40.95458984375,137.15957641601562,72.46891784667969,280.19293212890625,-0.9602256417274475,0.23989130556583405,-0.1428946554660797
50352,-10.279228210449219,27.156105041503906,139.17745971679688,33.447265625,63.232421875,-0.79345703125,134.88441467285156,71.7354736328125,277.8502197265625,-0.7651265859603882,0.6413634419441223,-0.056870900094509125
50532,-10.20052433013916,26.582061767578125,139.56907653808594,-2.25830078125,-117.37060546875,11.23046875,135.26515197753906,72.11940002441406,278.6778869628906,-0.98378986120224,-0.002495520981028676,0.17930780351161957
50769,-10.391913414001465,25.95884132385254,139.5448760986328,-20.93505859375,-44.00634765625,-6.16455078125,136.25828552246094,72.65165710449219,279.73040771484375,-0.9639031887054443,-0.11949309706687927,-0.23793287575244904
50879,-10.620451927185059,25.557151794433594,139.42520141601562,-2.38037109375,-4.2724609375,-4.94384765625,138.89422607421875,73.2958984375,282.1274719238281,-0.9598540663719177,-0.08579300343990326,-0.2670576274394989
51072,-10.794364929199219,25.364564895629883,139.26060485839844,2.86865234375,-7.080078125,-8.85009765625,141.4680938720703,73.73885345458984,284.488037109375,-0.9780514240264893,-0.023690208792686462,-0.2070125788450241
51306,-11.75806713104248,22.68323516845703,138.56546020507812,-16.2353515625,-129.82177734375,-113.037109375,150.1741943359375,75.11742401123047,293.11669921875,-0.7919226288795471,-0.44439882040023804,-0.41876986622810364
51540,-12.215274810791016,23.093019485473633,138.26966857910156,1.220703125,96.86279296875,74.64599609375,148.97158813476562,74.86405944824219,292.0377197265625,-0.7919898629188538,-0.4632866680622101,-0.39764001965522766
51665,-11.020737648010254,25.892654418945312,138.1984100341797,81.23779296875,166.80908203125,10.80322265625,141.0435791015625,73.16144561767578,284.17218017578125,-0.9799029231071472,0.10946978628635406,-0.1667531430721283
51837,-9.75114631652832,26.750186920166016,139.2589111328125,-58.77685546875,-91.064453125,49.6826171875,136.3323974609375,72.25978088378906,279.7396545410156,-0.6085801720619202,-0.7033835053443909,0.36726248264312744
51962,-10.359336853027344,25.97977066040039,139.10337829589844,-4.82177734375,2.5634765625,2.50244140625,138.80087280273438,73.04928588867188,282.0835266113281,-0.9326165914535522,-0.2195330411195755,-0.28641146421432495
52087,-10.499902725219727,25.6787109375,138.97994995117188,0.6103515625,-7.8125,-7.99560546875,141.40322875976562,73.5593032836914,284.4162292480469,-0.9622849225997925,-0.0332670621573925,-0.2700020372867584
52447,-10.586629867553711,25.305850982666016,138.84642028808594,6.8359375,-30.70068359375,-5.7373046875,145.16148376464844,74.24097442626953,287.9510498046875,-0.9835322499275208,0.03852109983563423,-0.17657992243766785
52692,-10.989180564880371,23.94719696044922,138.71774291992188,-53.16162109375,-193.4814453125,-53.16162109375,149.32650756835938,74.97714233398438,291.9578552246094,-0.9579752683639526,-0.10310155153274536,-0.2676813006401062
53052,-12.385490417480469,22.6225643157959,137.8997039794922,11.23046875,101.74560546875,39.9169921875,151.479248046875,75.20352935791016,293.9895324707031,-0.658467710018158,-0.7028752565383911,-0.2690478265285492
53172,-9.48925495147705,27.125141143798828,138.3534393310547,134.6435546875,53.7109375,68.603515625,137.0000457763672,71.9093017578125,279.4159851074219,-0.7050386071205139,0.6664251685142517,-0.242482990026474
53412,-10.250070571899414,25.262741088867188,138.37405395507812,-5.37109375,-11.5966796875,-5.92041015625,139.8094024658203,73.08030700683594,282.4771728515625,-0.9605079889297485,-0.10269658267498016,-0.25860756635665894
53772,-10.6050443649292,24.706283569335938,138.08921813964844,3.72314453125,-30.45654296875,-5.615234375,146.2248077392578,74.32133483886719,288.4766540527344,-0.9911474585533142,0.004807919263839722,-0.13267812132835388
54132,-11.111211776733398,23.311756134033203,137.9318084716797,-65.97900390625,-190.61279296875,-57.4951171875,150.5003204345703,75.00349426269531,292.2838439941406,-0.9309220910072327,-0.26834869384765625,-0.2477356195449829
54432,-11.108091354370117,24.258132934570312,137.11473083496094,106.3232421875,193.78662109375,5.18798828125,145.78224182128906,74.24488830566406,287.50982666015625,-0.9878942966461182,0.09506893903017044,-0.12258408963680267
54659,-9.440597534179688,26.165483474731445,138.25003051757812,-57.80029296875,-76.66015625,45.166015625,138.0785369873047,72.87908935546875,280.418701171875,-0.6317520141601562,-0.7556555271148682,-0.17284122109413147
54909,-10.492873191833496,24.823158264160156,137.93008422851562,1.89208984375,0.6103515625,-3.173828125,142.78927612304688,74.29278564453125,284.9526672363281,-0.9641972184181213,-0.04722696542739868,-0.26094695925712585
55206,-10.944061279296875,22.91352653503418,137.81008911132812,-48.33984375,-213.43994140625,-41.259765625,151.7150115966797,75.72193145751953,293.15191650390625,-0.9728038907051086,-0.16634337604045868,-0.16119049489498138
55378,-11.390677452087402,21.94106674194336,137.594482421875,-8.6669921875,176.20849609375,41.44287109375,152.6193084716797,75.56370544433594,294.4059143066406,-0.9381260871887207,-0.22289124131202698,-0.26502636075019836
55566,-9.653607368469238,26.28478240966797,137.9634552001953,80.99365234375,111.572265625,19.8974609375,139.81195068359375,72.27654266357422,281.8164978027344,-0.8024373054504395,0.5715516209602356,-0.17153161764144897
56112,-10.022733688354492,24.943805694580078,137.79710388183594,0.06103515625,-9.09423828125,-1.8310546875,142.4571990966797,73.33758544921875,284.268310546875,-0.9654110074043274,-0.1886746883392334,-0.179953932762146
56284,-10.211429595947266,24.79696273803711,137.67172241210938,-0.06103515625,-1.0986328125,-4.7607421875,144.8718719482422,73.8772964477539,286.37408447265625,-0.9659344553947449,-0.07924465090036392,-0.24635520577430725
56652,-10.376946449279785,24.670879364013672,137.5245361328125,4.0283203125,-6.591796875,-6.103515625,147.6380157470703,74.3706283569336,288.97137451171875,-0.9686793684959412,0.03027123026549816,-0.2464628517627716
57312,-10.191152572631836,24.842042922973633,136.4598388671875,79.9560546875,205.62744140625,12.451171875,147.06381225585938,73.77680969238281,287.5572814941406,-0.9822899103164673,0.09518693387508392,-0.16138753294944763
57431,-9.18415355682373,26.535987854003906,137.43226623535156,-34.24072265625,-28.01513671875,22.8271484375,141.6375732421875,72.59510040283203,282.7221374511719,-0.7813512682914734,0.5464393496513367,-0.30148687958717346
57612,-9.412175178527832,25.388202667236328,137.32337951660156,9.09423828125,-1.52587890625,-1.03759765625,144.41494750976562,73.87783813476562,285.4397888183594,-0.9553995728492737,-0.1347527652978897,-0.26277992129325867
57732,-10.534419059753418,23.364599227905273,136.10023498535156,17.4560546875,218.81103515625,6.28662109375,153.1431121826172,75.1174545288086,293.3084411621094,-0.9512028694152832,-0.1492830365896225,-0.27005133032798767
58092,-9.915897369384766,25.355899810791016,135.7935791015625,72.021484375,165.6494140625,-1.3427734375,147.19110107421875,73.69769287109375,287.0738830566406,-0.9341490268707275,0.25394561886787415,-0.250753253698349
58212,-9.77784538269043,26.408422470092773,134.8054656982422,1.28173828125,-54.99267578125,-42.90771484375,143.43014526367188,72.6487045288086,282.499755859375,-0.7739476561546326,-0.6037647724151611,-0.19097930192947388
58452,-9.72870922088623,25.722055435180664,134.93350219726562,0.79345703125,-38.6962890625,2.44140625,143.97003173828125,73.04354858398438,283.33123779296875,-0.932835042476654,-0.234621062874794,-0.27344411611557007
58691,-9.893292427062988,25.357778549194336,134.79885864257812,4.57763671875,-1.28173828125,-1.3427734375,148.0841522216797,73.81854248046875,286.91644287109375,-0.9506117701530457,-0.09608257561922073,-0.2951362133026123
59103,-9.939687728881836,24.909887313842773,134.69361877441406,9.521484375,-34.24072265625,-8.544921875,152.40647888183594,74.55887603759766,290.6927795410156,-0.9736619591712952,0.07299430668354034,-0.21599595248699188
59290,-9.633007049560547,22.87441635131836,133.69911193847656,118.7744140625,-69.76318359375,-158.02001953125,156.36199951171875,75.42623138427734,292.8705749511719,-0.8735015392303467,-0.4242810308933258,-0.23870648443698883
59400,-8.645011901855469,25.19791030883789,130.77340698242188,106.3232421875,203.67431640625,-127.8076171875,147.16683959960938,74.4573974609375,281.2944030761719,-0.9827412366867065,0.05698419362306595,0.17598986625671387
59587,-9.131991386413574,26.03561782836914,126.63590240478516,-5.7373046875,-21.484375,-0.79345703125,145.62667846679688,72.83891296386719,276.4430847167969,-0.9441465139389038,-0.17811641097068787,-0.2772400379180908
59712,-9.026488304138184,25.862548828125,126.67517852783203,14.09912109375,-0.18310546875,4.33349609375,147.08876037597656,72.93272399902344,277.5679016113281,-0.9127492308616638,-0.20217444002628326,-0.35498493909835815
59885,-8.957137107849121,25.686906814575195,126.62093353271484,11.8408203125,-5.7373046875,-1.3427734375,149.1841278076172,73.07891082763672,279.2677917480469,-0.9189192056655884,-0.14506728947162628,-0.366800993680954
60071,-9.033534049987793,25.437265396118164,126.4917221069336,10.1318359375,-14.0380859375,-5.37109375,151.4385528564453,73.39225006103516,281.2376708984375,-0.8665414452552795,-0.007756630890071392,-0.49904486536979675
60368,-9.031335830688477,24.968406677246094,126.37228393554688,16.11328125,-59.50927734375,-12.75634765625,153.6685333251953,73.82849884033203,283.0224914550781,-0.9707419872283936,0.049302585422992706,-0.23500898480415344
61212,-8.169434547424316,23.439891815185547,124.55413055419922,50.1708984375,117.49267578125,-116.3330078125,155.95106506347656,74.69176483154297,283.0528869628906,-0.8045395016670227,-0.544927716255188,0.23615676164627075
61392,-7.994755268096924,26.26219940185547,122.59284210205078,58.89892578125,194.39697265625,-114.56298828125,148.07418823242188,73.05138397216797,273.699951171875,-0.9888548851013184,0.14859497547149658,0.009257765486836433
61632,-8.07589340209961,26.267152786254883,121.30944061279297,15.68603515625,-41.8701171875,-2.01416015625,145.54339599609375,72.32501983642578,270.4526062011719,-0.9588755369186401,-0.1888694167137146,-0.2118632197380066
61932,-9.03784465789795,25.12990379333496,120.25200653076172,74.15771484375,200.01220703125,43.8232421875,154.13641357421875,73.30352783203125,278.470703125,-0.9856988191604614,0.03249773755669594,-0.1653532236814499
62112,-8.2724609375,27.240705490112305,120.94056701660156,16.78466796875,100.40283203125,67.93212890625,146.50283813476562,71.627197265625,271.13922119140625,-0.946821391582489,0.29190340638160706,-0.135357066988945
62232,-8.227875709533691,26.676734924316406,121.09925079345703,-10.25390625,-103.57666015625,0.0,145.6309356689453,72.01890563964844,270.9729309082031,-0.9484691619873047,-0.2785753309726715,-0.15100345015525818
62472,-8.422174453735352,26.201025009155273,121.03992462158203,1.5869140625,0.48828125,-1.15966796875,148.76577758789062,72.89227294921875,273.8803405761719,-0.9577382206916809,-0.10968643426895142,-0.26590651273727417
62699,-8.635357856750488,25.837621688842773,120.83924865722656,8.85009765625,-29.296875,-3.84521484375,152.52603149414062,73.61994934082031,277.3884582519531,-0.976784348487854,0.04693533480167389,-0.20902004837989807
62887,-8.83031177520752,24.729738235473633,120.74803161621094,-20.751953125,-159.66796875,-34.11865234375,156.4185333251953,74.17137145996094,280.8399353027344,-0.9828879237174988,-0.1690436750650406,-0.07318221777677536
63059,-9.414363861083984,23.461355209350586,119.7225570678711,-7.080078125,179.38232421875,16.78466796875,158.26100158691406,74.2789077758789,282.6889343261719,-0.8507983684539795,-0.5150299072265625,-0.10433796048164368
63246,-8.015844345092773,27.705835342407227,120.6220474243164,13.36669921875,87.82958984375,113.28125,145.6893310546875,71.3719253540039,270.6491394042969,-0.5137076377868652,0.8155955672264099,-0.26628607511520386
63371,-8.19808292388916,26.723501205444336,120.51103210449219,-23.74267578125,-76.11083984375,-1.89208984375,148.04798889160156,72.34049987792969,273.1849365234375,-0.992877185344696,-0.005295345094054937,-0.11902491748332977
63668,-8.262412071228027,26.42140769958496,120.41950225830078,-0.244140625,-4.45556640625,-4.638671875,150.36549377441406,73.00528717041016,275.31878662109375,-0.9677707552909851,-0.08080507814884186,-0.23851674795150757
63840,-8.431510925292969,26.224590301513672,120.27653503417969,5.859375,-15.380859375,-5.0048828125,153.03306579589844,73.50834655761719,277.8010559082031,-0.9804353713989258,0.028185222297906876,-0.1948128044605255
64143,-8.503028869628906,25.727313995361328,120.26853942871094,1.52587890625,-61.82861328125,-4.21142578125,156.05780029296875,73.99638366699219,280.7623596191406,-0.9868304133415222,-0.0019385975319892168,-0.16174645721912384
64321,-9.213597297668457,24.585927963256836,119.3612060546875,54.443359375,229.67529296875,48.095703125,157.10592651367188,73.9615478515625,281.71771240234375,-0.9904786944389343,-0.010227246209979057,-0.1372857391834259
64632,-7.9102325439453125,27.234405517578125,119.36712646484375,132.8125,107.23876953125,24.2919921875,148.49623107910156,71.9888916015625,272.6407165527344,-0.8886600136756897,0.41351768374443054,-0.19820824265480042
64992,-8.064260482788086,26.7463436126709,119.4277114868164,6.103515625,-1.46484375,-1.0986328125,150.44119262695312,72.80540466308594,274.7047424316406,-0.9630610942840576,-0.1402745097875595,-0.22986158728599548
65112,-8.174027442932129,26.648963928222656,119.33185577392578,0.732421875,-3.5400390625,-5.92041015625,152.06723022460938,73.0889663696289,276.2342529296875,-0.9689385890960693,-0.027902550995349884,-0.2457224726676941
65292,-9.224040031433105,23.529827117919922,119.07837677001953,-98.93798828125,-291.56494140625,-46.56982421875,161.78085327148438,74.32429504394531,285.54498291015625,-0.8924774527549744,-0.016112932935357094,-0.45080405473709106
65412,-7.255125045776367,27.883766174316406,118.77261352539062,181.5185546875,124.51171875,83.80126953125,148.46994018554688,71.50811767578125,272.159912109375,-0.8799837827682495,0.36148741841316223,-0.3081483840942383
65532,-6.8406524658203125,28.382539749145508,119.32513427734375,-6.04248046875,-35.33935546875,37.41455078125,148.3347625732422,71.70671844482422,272.3741760253906,-0.8387387990951538,0.5112050175666809,-0.18758104741573334
65772,-7.78018045425415,26.995162963867188,118.99102020263672,-7.99560546875,-8.1787109375,-4.638671875,150.83108520507812,72.66532897949219,275.2122497558594,-0.9619301557540894,-0.0843421146273613,-0.2599552869796753
66012,-7.92250919342041,26.898862838745117,118.89582824707031,0.6103515625,-0.06103515625,-3.41796875,152.01998901367188,72.90128326416016,276.2788391113281,-0.969021737575531,-0.07596515119075775,-0.23500262200832367
66192,-8.008657455444336,26.82755470275879,118.81792449951172,2.25830078125,-1.40380859375,-3.60107421875,153.53948974609375,73.122802734375,277.6897888183594,-0.9695412516593933,-0.053325340151786804,-0.23905248939990997
66372,-8.856590270996094,24.528810501098633,118.43537902832031,-86.36474609375,-257.87353515625,-72.69287109375,161.96311950683594,74.15006256103516,285.5104064941406,-0.9288144707679749,-0.20248323678970337,-0.3103293776512146
66553,-9.210664749145508,25.393030166625977,117.86568450927734,71.22802734375,218.017578125,32.5927734375,158.1712646484375,73.61528778076172,282.15283203125,-0.9921874403953552,0.010309766046702862,-0.12432965636253357
66785,-7.435939311981201,28.155244827270508,118.1227798461914,118.65234375,116.02783203125,-0.79345703125,148.12841796875,71.57577514648438,271.79681396484375,-0.888961911201477,0.44725483655929565,-0.09853871911764145
66901,-7.271262168884277,27.592708587646484,118.4168930053711,0.6103515625,-158.14208984375,-17.4560546875,149.2713623046875,72.09245300292969,273.5337219238281,-0.7464699149131775,0.5601748824119568,-0.35914739966392517
67079,-7.7371673583984375,26.99518585205078,118.35364532470703,1.15966796875,-5.37109375,-0.18310546875,151.61724853515625,72.61399841308594,275.78070068359375,-0.9427592754364014,-0.1830105036497116,-0.27876898646354675
67508,-8.02277660369873,26.735027313232422,118.14874267578125,3.60107421875,-5.2490234375,-5.2490234375,155.5596923828125,73.18424987792969,279.39886474609375,-0.9684010744094849,-0.008685704320669174,-0.2492467314004898
67685,-8.09188461303711,26.452451705932617,118.06932067871094,4.69970703125,-31.67724609375,-3.60107421875,158.1142120361328,73.51575469970703,281.83929443359375,-0.9860595464706421,0.04836125671863556,-0.15920957922935486
67810,-8.942370414733887,22.575380325317383,117.53797149658203,16.66259765625,-144.83642578125,-119.0185546875,166.10194396972656,74.20556640625,289.5362548828125,-0.8749576807022095,-0.2173316329717636,-0.4326847493648529
68044,-6.827866077423096,28.43045425415039,117.50110626220703,62.68310546875,44.5556640625,66.22314453125,149.79696655273438,71.83467102050781,272.98785400390625,-0.5609489679336548,0.8177838325500488,-0.12870846688747406
68231,-7.337881565093994,26.81200408935547,117.64693450927734,1.15966796875,-16.845703125,-5.37109375,153.64556884765625,73.02426147460938,277.3149719238281,-0.9513683319091797,-0.13112910091876984,-0.2787531912326813
68466,-7.503355503082275,26.716480255126953,117.56120300292969,-5.06591796875,-1.77001953125,-3.173828125,155.25267028808594,73.25849151611328,278.7789001464844,-0.9660298228263855,-0.0396699421107769,-0.2553676664829254
68712,-7.7068610191345215,26.374021530151367,117.3868179321289,5.7373046875,-29.23583984375,-2.5634765625,159.86627197265625,73.79408264160156,283.078369140625,-0.9744122624397278,0.025850901380181313,-0.223276749253273
68952,-8.75759220123291,23.77103614807129,117.17564392089844,-121.64306640625,-283.203125,-62.3779296875,166.21627807617188,74.30350494384766,289.14971923828125,-0.8818665742874146,-0.1254250705242157,-0.4545106589794159
69252,-8.321054458618164,25.91815757751465,116.47433471679688,81.72607421875,243.71337890625,26.85546875,157.6299285888672,73.28755187988281,280.51171875,-0.9890288710594177,0.0673353523015976,-0.13148371875286102
69372,-6.726527214050293,27.881196975708008,117.12736511230469,-30.21240234375,-44.189453125,22.15576171875,150.47430419921875,72.15644073486328,273.503662109375,-0.7344875931739807,0.6328540444374084,-0.24499747157096863
69552,-7.634157180786133,26.451251983642578,116.60343170166016,7.01904296875,-5.37109375,-0.732421875,153.5731658935547,73.24542999267578,276.8382568359375,-0.9667168259620667,-0.10899084806442261,-0.2314724177122116
69673,-7.885249614715576,26.139362335205078,116.3882064819336,5.67626953125,-22.216796875,-4.5166015625,158.05345153808594,73.86786651611328,280.9830322265625,-0.9847558736801147,0.02764001488685608,-0.1717323362827301
69793,-8.24949836730957,24.17595863342285,116.38018035888672,-43.27392578125,-250.8544921875,-29.35791015625,163.92904663085938,74.45762634277344,286.43035888671875,-0.9838752150535583,-0.11253401637077332,-0.13901697099208832
69913,-8.864397048950195,23.21225357055664,115.57112884521484,-45.2880859375,114.92919921875,-34.97314453125,166.03927612304688,74.48960876464844,288.542236328125,-0.8005010485649109,-0.5871738791465759,-0.12010374665260315
70032,-8.776411056518555,25.362504959106445,115.56122589111328,37.2314453125,238.83056640625,42.1142578125,160.55984497070312,73.57144165039062,283.4222717285156,-0.9649388790130615,-0.002447649836540222,-0.26246336102485657
70212,-7.763166427612305,28.01721954345703,115.71492004394531,71.044921875,123.71826171875,14.70947265625,151.687744140625,71.78508758544922,274.2619934082031,-0.8393981456756592,0.510093092918396,-0.18765874207019806
70333,-7.306854724884033,28.153512954711914,116.22854614257812,-36.4990234375,-58.59375,27.9541015625,151.95848083496094,71.99762725830078,274.82025146484375,-0.7963539361953735,0.5522024035453796,-0.2467651665210724
70452,-7.5307183265686035,26.99772071838379,116.2819595336914,-40.34423828125,-60.48583984375,-16.90673828125,153.4315185546875,72.61611938476562,276.59552001953125,-0.9663864374160767,-0.0761067345738411,-0.2455710619688034
70573,-7.749929904937744,26.816604614257812,116.17451477050781,-4.638671875,-4.57763671875,-4.5166015625,155.48611450195312,73.04769134521484,278.5087890625,-0.9726376533508301,-0.0919235572218895,-0.2133682668209076
70692,-7.917812347412109,26.688817977905273,116.03759002685547,3.90625,-3.96728515625,-4.5166015625,157.88934326171875,73.40982055664062,280.7294006347656,-0.9784838557243347,0.01331864669919014,-0.20589317381381989
70813,-7.966597080230713,26.414525985717773,115.98958587646484,4.45556640625,-31.8603515625,-2.62451171875,160.3770751953125,73.70549774169922,283.1126708984375,-0.9743057489395142,0.02505810745060444,-0.22383128106594086
70933,-8.44946002960205,25.117137908935547,115.81576538085938,-56.45751953125,-187.07275390625,-47.42431640625,164.71990966796875,74.14384460449219,287.13824462890625,-0.9805417060852051,-0.06347159296274185,-0.18576698005199432
71233,-9.370616912841797,23.28217124938965,114.89364624023438,23.4375,-58.28857421875,-156.92138671875,168.10061645507812,74.43482971191406,290.1350402832031,-0.6026681065559387,-0.7973762154579163,-0.03134135156869888
71412,-8.849853515625,25.70491600036621,115.111328125,60.302734375,220.27587890625,40.95458984375,161.32772827148438,73.78246307373047,284.0246887207031,-0.9703460335731506,0.17550496757030487,-0.1662122905254364
71592,-7.948490142822266,27.489299774169922,115.306884765625,78.18603515625,134.765625,64.27001953125,155.36981201171875,72.7089614868164,277.8669738769531,-0.8928284049034119,0.32584866881370544,-0.3109341263771057
71713,-7.360355377197266,27.064132690429688,115.96736907958984,-40.8935546875,-46.630859375,-15.380859375,154.42059326171875,73.06999969482422,277.2912292480469,-0.9649917483329773,-0.058141764253377914,-0.2557545304298401
71833,-7.560518264770508,26.92399024963379,115.87779235839844,0.244140625,-0.91552734375,-1.3427734375,156.54660034179688,73.38294982910156,279.2879638671875,-0.93183434009552,-0.18453240394592285,-0.3124620020389557
72133,-7.7376556396484375,26.80852699279785,115.74425506591797,2.0751953125,-1.89208984375,-4.7607421875,159.15838623046875,73.65817260742188,281.67413330078125,-0.9686140418052673,-0.007024689577519894,-0.24847006797790527
72252,-7.853277206420898,26.32965850830078,115.6472396850586,-1.40380859375,-49.072265625,-7.75146484375,163.15557861328125,74.06318664550781,285.4487609863281,-0.982172429561615,0.0714513435959816,-0.1738736629486084
72373,-8.51551628112793,24.294248580932617,115.5555191040039,-89.599609375,-275.2685546875,-45.83740234375,167.80661010742188,74.39690399169922,289.7217712402344,-0.9188245534896851,-0.17879541218280792,-0.3518432080745697
72493,-8.487130165100098,27.42129135131836,115.09729766845703,38.63525390625,163.02490234375,41.07666015625,157.4869384765625,72.62097930908203,279.8684387207031,-0.941595196723938,0.18550026416778564,-0.281048446893692
72673,-7.535520553588867,28.455751419067383,115.81192016601562,52.79541015625,106.8115234375,111.328125,152.9942169189453,72.00469207763672,275.681396484375,-0.6517518758773804,0.7330560088157654,-0.19454659521579742
72793,-7.316869258880615,27.794038772583008,116.36347198486328,3.0517578125,-130.67626953125,17.578125,153.59649658203125,72.46300506591797,276.8846435546875,-0.9885320663452148,0.13275621831417084,0.07197393476963043
72913,-7.804653167724609,27.14495086669922,116.30250549316406,-28.25927734375,-36.4990234375,-14.70947265625,155.27743530273438,72.987548828125,278.61663818359375,-0.984255850315094,-0.04532907158136368,-0.17083820700645447
73093,-8.110520362854004,26.973609924316406,116.13619995117188,-0.9765625,0.9765625,-2.685546875,157.91224670410156,73.43962860107422,281.08221435546875,-0.9700828194618225,-0.07559241354465485,-0.23070567846298218
73273,-8.204374313354492,26.8984375,116.05899810791016,4.39453125,-2.9296875,-1.8310546875,159.68597412109375,73.6334228515625,282.74139404296875,-0.9813434481620789,-0.010064493864774704,-0.19199958443641663
73393,-8.258306503295898,26.636621475219727,116.01946258544922,4.150390625,-30.2734375,-2.50244140625,162.20701599121094,73.89698028564453,285.23602294921875,-0.9788510799407959,0.04446893557906151,-0.19968262314796448
73512,-9.702908515930176,23.601757049560547,115.49893951416016,3.72314453125,-83.43505859375,-101.6845703125,169.2944793701172,74.24662017822266,292.33837890625,-0.9025488495826721,-0.35369279980659485,-0.2455749809741974
73693,-9.87285327911377,25.745840072631836,115.80994415283203,22.39990234375,192.44384765625,79.345703125,164.27188110351562,73.21485900878906,288.39459228515625,-0.9260773658752441,0.09469646960496902,-0.36525779962539673
73813,-9.055347442626953,27.856260299682617,117.0196762084961,4.08935546875,51.81884765625,81.60400390625,156.3978729248047,71.76614379882812,281.23004150390625,-0.9309353828430176,0.18752717971801758,-0.31335747241973877
73992,-8.24704647064209,28.627119064331055,118.25312805175781,19.47021484375,16.17431640625,130.4931640625,153.4377899169922,71.42929077148438,278.9849548339844,-0.6970980763435364,0.6418360471725464,-0.3195321559906006
74173,-8.008443832397461,27.68134117126465,118.9325942993164,-8.11767578125,-48.15673828125,-1.953125,153.82913208007812,72.13311004638672,280.0130920410156,-0.9816132187843323,-0.12371804565191269,-0.1453593224287033
74292,-8.112479209899902,27.558069229125977,118.89730072021484,1.3427734375,2.86865234375,2.25830078125,154.3931884765625,72.43327331542969,280.53173828125,-0.9706037640571594,-0.15931926667690277,-0.1804039031267166
74413,-8.261590003967285,27.43995475769043,118.81243896484375,1.64794921875,-2.62451171875,-2.13623046875,155.2197723388672,72.70558166503906,281.2131652832031,-0.9645476937294006,-0.181596577167511,-0.19149541854858398
74593,-8.491581916809082,27.347942352294922,118.69770812988281,-3.0517578125,0.0,-1.46484375,157.16314697265625,72.91057586669922,283.01239013671875,-0.9710521101951599,-0.05734245106577873,-0.23188281059265137
74832,-8.536972045898438,27.1956729888916,118.6846694946289,7.2021484375,-15.2587890625,3.2958984375,159.51058959960938,73.17119598388672,285.492431640625,-0.9894869923591614,-0.11983076483011246,-0.08096931129693985
74941,-9.215147018432617,26.862140655517578,119.13536071777344,-64.14794921875,38.6962890625,26.3671875,161.05772399902344,73.2881088256836,288.0867004394531,-0.9764792919158936,-0.20949600636959076,0.05098612979054451
75129,-9.174246788024902,27.884897232055664,120.0221939086914,2.74658203125,41.44287109375,91.36962890625,157.54347229003906,72.30380249023438,285.22509765625,-0.7971351146697998,0.4355221390724182,-0.41820573806762695
75301,-8.813214302062988,27.32063102722168,120.26004791259766,7.6904296875,2.38037109375,0.91552734375,156.77645874023438,72.24906158447266,284.2632141113281,-0.9792787432670593,-0.12461382150650024,-0.1596391201019287
75426,-8.843381881713867,27.26180648803711,120.2340087890625,2.99072265625,2.74658203125,0.9765625,156.86273193359375,72.31710052490234,284.3081970214844,-0.9795105457305908,-0.1413206309080124,-0.1434836983680725
75551,-8.942298889160156,27.174232482910156,120.17791748046875,1.28173828125,3.5400390625,0.67138671875,157.12786865234375,72.42962646484375,284.5386962890625,-0.9828529953956604,-0.10464015603065491,-0.15182378888130188
75728,-9.05854606628418,27.056625366210938,120.11152648925781,1.40380859375,3.2958984375,0.6103515625,157.33868408203125,72.53845977783203,284.6960144042969,-0.9836898446083069,-0.10773290693759918,-0.1440420001745224
75837,-9.110687255859375,26.997522354125977,120.08466339111328,1.77001953125,2.8076171875,1.15966796875,157.48902893066406,72.58699035644531,284.80877685546875,-0.9814403057098389,-0.10384534299373627,-0.1612177938222885
76026,-9.164203643798828,26.932931900024414,120.05359649658203,1.64794921875,2.685546875,0.42724609375,157.67462158203125,72.63277435302734,284.9553527832031,-0.9814819693565369,-0.11155380308628082,-0.15572048723697662
76151,-9.24875545501709,26.83975601196289,120.00738525390625,1.28173828125,2.9296875,0.42724609375,157.95753479003906,72.6947021484375,285.1949157714844,-0.9824612140655518,-0.09889184683561325,-0.1580834686756134
76266,-9.337946891784668,26.748802185058594,119.95732116699219,1.03759765625,3.11279296875,0.1220703125,158.22653198242188,72.7467041015625,285.4165954589844,-0.982814610004425,-0.10760042816400528,-0.14999210834503174
76391,-9.424360275268555,26.652790069580078,119.90904235839844,1.15966796875,2.9296875,0.42724609375,158.50924682617188,72.79942321777344,285.6537780761719,-0.9839944839477539,-0.09801600873470306,-0.1488213837146759
76500,-9.506121635437012,26.559919357299805,119.86543273925781,1.220703125,2.9296875,0.54931640625,158.77467346191406,72.84940338134766,285.8705749511719,-0.9847805500030518,-0.0975671112537384,-0.14383357763290405
76753,-9.55410099029541,26.496437072753906,119.83771514892578,1.28173828125,3.23486328125,0.3662109375,158.92645263671875,72.8811264038086,285.988525390625,-0.9853800535202026,-0.09549412876367569,-0.14109256863594055
76868,-9.603775978088379,26.43128204345703,119.80899047851562,1.220703125,2.74658203125,0.30517578125,159.08006286621094,72.9133529663086,286.10845947265625,-0.9846388697624207,-0.10358280688524246,-0.14055946469306946
76993,-9.654952049255371,26.365449905395508,119.78060150146484,1.15966796875,2.74658203125,0.54931640625,159.24607849121094,72.95259094238281,286.2518615722656,-0.9834340810775757,-0.10506416112184525,-0.14771278202533722
77218,-9.774569511413574,26.20399284362793,119.7115249633789,1.46484375,2.9296875,0.48828125,159.6428985595703,73.04840850830078,286.5693054199219,-0.9854313731193542,-0.10038797557353973,-0.1372847557067871
77406,-9.820369720458984,26.137136459350586,119.68451690673828,1.40380859375,2.8076171875,0.3662109375,159.79556274414062,73.08789825439453,286.6932067871094,-0.9857205152511597,-0.09697578847408295,-0.13766241073608398
77593,-9.867340087890625,26.07218360900879,119.65872192382812,1.46484375,2.9296875,0.732421875,159.9518585205078,73.12825775146484,286.819091796875,-0.9853558540344238,-0.09985418617725372,-0.13821353018283844
77703,-9.97974681854248,25.906320571899414,119.59679412841797,1.15966796875,2.99072265625,0.30517578125,160.31568908691406,73.23402404785156,287.1072692871094,-0.9858711957931519,-0.10021547228097916,-0.13421928882598877
77890,-10.044682502746582,25.80601692199707,119.56044006347656,1.46484375,2.9296875,0.67138671875,160.53677368164062,73.2995834350586,287.28643798828125,-0.9851570129394531,-0.09733946621417999,-0.14138826727867126
78062,-10.13683032989502,25.674335479736328,119.50983428955078,1.28173828125,2.9296875,0.54931640625,160.8365478515625,73.38671875,287.53167724609375,-0.9862836599349976,-0.09430887550115585,-0.13546401262283325
78312,-10.17786979675293,25.60633087158203,119.48561096191406,1.52587890625,2.9296875,0.54931640625,160.98306274414062,73.42786407470703,287.6477355957031,-0.9853638410568237,-0.09996271133422852,-0.1380779892206192
78546,-10.241243362426758,25.506406784057617,119.44940948486328,1.3427734375,3.173828125,0.6103515625,161.22055053710938,73.48974609375,287.8392639160156,-0.9850006103515625,-0.10039521753787994,-0.14033739268779755
78659,-10.326192855834961,25.373870849609375,119.40237426757812,1.40380859375,2.8076171875,0.6103515625,161.51405334472656,73.57270050048828,288.07830810546875,-0.9854904413223267,-0.09623883664608002,-0.13980965316295624
78972,-10.413040161132812,25.24086570739746,119.35508728027344,1.3427734375,2.8076171875,0.6103515625,161.81248474121094,73.65021514892578,288.3199768066406,-0.9859330058097839,-0.09681987017393112,-0.1362428069114685
79088,-10.517230987548828,25.06889533996582,119.29924774169922,1.3427734375,2.74658203125,0.54931640625,162.20919799804688,73.74772644042969,288.64666748046875,-0.9853428602218628,-0.09767141938209534,-0.13985589146614075
79213,-10.558510780334473,25.000106811523438,119.27584838867188,1.3427734375,2.99072265625,0.6103515625,162.34881591796875,73.78540802001953,288.7549743652344,-0.9858527779579163,-0.09394215792417526,-0.13881362974643707
79510,-10.680415153503418,24.795799255371094,119.21068572998047,1.220703125,2.9296875,0.732421875,162.75677490234375,73.89653015136719,289.0709228515625,-0.9850228428840637,-0.10335845500230789,-0.1380111128091812
79682,-10.721307754516602,24.727895736694336,119.19026184082031,1.3427734375,2.9296875,0.732421875,162.87942504882812,73.93737030029297,289.1726379394531,-0.9846178889274597,-0.10490947961807251,-0.13971979916095734
79807,-10.761130332946777,24.660512924194336,119.16958618164062,1.15966796875,3.11279296875,0.67138671875,163.02975463867188,73.97504425048828,289.2924499511719,-0.9861326813697815,-0.10222034156322479,-0.13074137270450592
79979,-10.86833667755127,24.448707580566406,119.11003112792969,1.220703125,2.99072265625,0.48828125,163.5274658203125,74.08641815185547,289.6978759765625,-0.9863672852516174,-0.0989842489361763,-0.13145971298217773
80173,-10.915019989013672,24.342493057250977,119.08332824707031,1.28173828125,2.9296875,0.54931640625,163.77781677246094,74.14350891113281,289.9011535644531,-0.9855040907859802,-0.10417260974645615,-0.13390196859836578
80345,-10.985733032226562,24.20163345336914,119.04459381103516,1.28173828125,2.99072265625,0.6103515625,164.1036376953125,74.22483825683594,290.1684265136719,-0.9859107732772827,-0.09859107434749603,-0.13512848317623138
80470,-11.01801872253418,24.130382537841797,119.02666473388672,1.28173828125,2.99072265625,0.79345703125,164.26290893554688,74.26663970947266,290.2998962402344,-0.9858338832855225,-0.1015903651714325,-0.13345715403556824
80579,-11.0671968460083,24.02397918701172,118.99996185302734,1.220703125,2.9296875,0.54931640625,164.50828552246094,74.32758331298828,290.50140380859375,-0.9860376715660095,-0.09750178456306458,-0.13499325513839722
80772,-11.13364028930664,23.881303787231445,118.96177673339844,1.28173828125,2.99072265625,0.6103515625,164.8545379638672,74.40618133544922,290.7880859375,-0.9851154685020447,-0.1042075902223587,-0.13670501112937927
80953,-11.164366722106934,23.809083938598633,118.94377899169922,1.15966796875,2.86865234375,0.54931640625,165.03271484375,74.44609832763672,290.93902587890625,-0.9861699342727661,-0.09663865715265274,-0.13464666903018951
81253,-11.18757152557373,23.734067916870117,118.92816162109375,1.3427734375,2.86865234375,0.48828125,165.2097625732422,74.48583984375,291.0851135253906,-0.9861583113670349,-0.09892722219228745,-0.13306070864200592
81373,-11.243651390075684,23.591676712036133,118.89418029785156,1.220703125,2.86865234375,0.6103515625,165.54812622070312,74.56661224365234,291.36309814453125,-0.9862006902694702,-0.09732402116060257,-0.13392552733421326
81493,-11.267303466796875,23.479169845581055,118.87538146972656,1.46484375,2.74658203125,0.6103515625,165.80027770996094,74.62970733642578,291.57122802734375,-0.9860644936561584,-0.0974438339471817,-0.1348392516374588
81673,-11.321039199829102,23.255592346191406,118.83814239501953,1.52587890625,2.8076171875,0.67138671875,166.2704315185547,74.75239562988281,291.95513916015625,-0.9861158728599548,-0.09441661834716797,-0.13660530745983124
81793,-11.347533226013184,23.182706832885742,118.82247924804688,1.52587890625,2.9296875,0.732421875,166.40829467773438,74.79275512695312,292.0603332519531,-0.9867571592330933,-0.09055569022893906,-0.13457414507865906
81913,-11.418656349182129,23.1362361907959,118.78868103027344,1.46484375,2.99072265625,0.54931640625,166.55393981933594,74.83102416992188,292.17529296875,-0.9855562448501587,-0.09793306887149811,-0.1381598562002182
82033,-11.475567817687988,23.006738662719727,118.75611114501953,1.220703125,2.9296875,0.6103515625,166.87326049804688,74.90760803222656,292.4380798339844,-0.9864277839660645,-0.0926498994231224,-0.13555890321731567
82153,-11.485278129577637,22.96116065979004,118.74739837646484,1.3427734375,2.86865234375,0.6103515625,167.03216552734375,74.94508361816406,292.56744384765625,-0.9860695004463196,-0.09626030176877975,-0.1356504112482071
82273,-11.469053268432617,22.905315399169922,118.74844360351562,1.3427734375,3.11279296875,0.67138671875,167.1894073486328,74.98045349121094,292.69146728515625,-0.9864275455474854,-0.0946989580988884,-0.1341368854045868
82392,-11.552765846252441,22.869577407836914,118.7112808227539,1.15966796875,2.99072265625,0.67138671875,167.3522491455078,75.01800537109375,292.8270263671875,-0.9859556555747986,-0.09701459109783173,-0.13594019412994385
82693,-11.460701942443848,22.873008728027344,118.74034118652344,1.46484375,2.86865234375,0.79345703125,167.598876953125,75.07644653320312,293.0301208496094,-0.9859817624092102,-0.09701523184776306,-0.13574936985969543
82813,-11.558577537536621,22.939453125,118.69696807861328,1.40380859375,2.9296875,0.67138671875,167.7550048828125,75.11557006835938,293.1581726074219,-0.9863836765289307,-0.09455347061157227,-0.1345614790916443
82993,-11.45014762878418,22.9117431640625,118.73396301269531,1.46484375,3.0517578125,0.6103515625,167.92575073242188,75.15381622314453,293.2972106933594,-0.9867233633995056,-0.09473887830972672,-0.131914883852005
83113,-11.50544548034668,22.84604263305664,118.69499969482422,1.40380859375,3.0517578125,0.48828125,168.44117736816406,75.26913452148438,293.7199401855469,-0.9861891269683838,-0.09513965994119644,-0.13557101786136627
83233,-11.491890907287598,22.88175392150879,118.69538879394531,1.40380859375,2.8076171875,0.67138671875,168.61441040039062,75.31000518798828,293.864501953125,-0.9863262176513672,-0.09410687536001205,-0.1352936029434204
83353,-11.4484281539917,22.86451530456543,118.69955444335938,1.40380859375,3.0517578125,0.6103515625,168.96875,75.38653564453125,294.15716552734375,-0.9855057597160339,-0.09709003567695618,-0.1391105055809021
83473,-11.444673538208008,22.88616180419922,118.69305419921875,1.40380859375,2.99072265625,0.244140625,169.1449737548828,75.42658233642578,294.30224609375,-0.9868760704994202,-0.0940396711230278,-0.13127121329307556
83593,-11.476103782653809,22.991619110107422,118.6759033203125,1.220703125,3.0517578125,0.54931640625,169.32554626464844,75.4646987915039,294.4519958496094,-0.9862452745437622,-0.09454517066478729,-0.13557873666286469
83773,-11.511454582214355,22.937868118286133,118.6561508178711,1.3427734375,3.11279296875,0.6103515625,169.50225830078125,75.5031967163086,294.6012878417969,-0.9867011904716492,-0.09407997131347656,-0.1325508952140808
83893,-11.433720588684082,22.979015350341797,118.6784439086914,1.03759765625,2.86865234375,0.42724609375,169.78134155273438,75.56336975097656,294.841064453125,-0.987282931804657,-0.08876203000545502,-0.13188529014587402
84133,-11.404974937438965,22.91151237487793,118.68441009521484,1.220703125,2.99072265625,0.54931640625,169.9551544189453,75.60244750976562,294.984375,-0.9871593117713928,-0.08896680176258087,-0.13266979157924652
84253,-11.43681812286377,22.879661560058594,118.66313171386719,1.40380859375,2.9296875,0.54931640625,170.19549560546875,75.66239929199219,295.1815490722656,-0.9876044392585754,-0.08604038506746292,-0.1312805861234665
84613,-11.419602394104004,22.900421142578125,118.66116333007812,1.52587890625,2.99072265625,0.67138671875,170.4456787109375,75.72085571289062,295.3867492675781,-0.986964762210846,-0.08863373100757599,-0.1343298703432083
84729,-11.397538185119629,22.93552589416504,118.65973663330078,1.52587890625,2.99072265625,0.6103515625,170.74049377441406,75.7994613647461,295.6247253417969,-0.986772894859314,-0.08972840756177902,-0.13501189649105072
84901,-11.41124439239502,22.926584243774414,118.64984893798828,1.40380859375,2.86865234375,0.732421875,170.88417053222656,75.83910369873047,295.7413635253906,-0.9865814447402954,-0.08962386846542358,-0.1364727020263672
85026,-11.405263900756836,22.87527084350586,118.63436889648438,1.3427734375,2.9296875,0.6103515625,171.47555541992188,75.97076416015625,296.2325134277344,-0.986774206161499,-0.09301511198282242,-0.13275901973247528
85141,-11.330416679382324,22.88630485534668,118.65721130371094,1.220703125,3.11279296875,0.48828125,171.6524658203125,76.0066909790039,296.3789978027344,-0.9873337745666504,-0.0915464460849762,-0.1295808106660843
85391,-11.42424201965332,22.922122955322266,118.60889434814453,1.3427734375,2.8076171875,0.48828125,172.0317840576172,76.07884979248047,296.6982727050781,-0.9865189790725708,-0.08905074000358582,-0.13729655742645264
85500,-11.308274269104004,22.90304183959961,118.64762115478516,1.28173828125,3.0517578125,0.42724609375,172.21127319335938,76.11598205566406,296.8450927734375,-0.987004280090332,-0.09178082644939423,-0.13190490007400513
85625,-11.366588592529297,22.882930755615234,118.61875915527344,1.28173828125,2.86865234375,0.30517578125,172.3812255859375,76.15380859375,296.98358154296875,-0.9872706532478333,-0.08905359357595444,-0.13178011775016785
85803,-11.33868408203125,22.922691345214844,118.61412811279297,1.708984375,2.86865234375,0.54931640625,172.7920379638672,76.25011444091797,297.3150939941406,-0.9857016205787659,-0.10243542492389679,-0.1337883174419403
85928,-11.326264381408691,22.953672409057617,118.61243438720703,1.220703125,2.9296875,0.42724609375,172.97903442382812,76.29335021972656,297.4740295410156,-0.9898467063903809,-0.0712689608335495,-0.12298095226287842
86100,-11.373358726501465,22.94718360900879,118.59111785888672,1.64794921875,3.35693359375,0.91552734375,173.07891845703125,76.33907318115234,297.5469055175781,-0.9861963391304016,-0.10345135629177094,-0.12928429245948792
86288,-11.444717407226562,22.929033279418945,118.5562973022461,1.28173828125,3.2958984375,0.79345703125,173.525634765625,76.43282318115234,297.9483337402344,-0.9850842356681824,-0.09572543203830719,-0.14298836886882782
86413,-11.367974281311035,22.917173385620117,118.58179473876953,1.3427734375,2.86865234375,0.732421875,173.74398803710938,76.47281646728516,298.14251708984375,-0.9859327673912048,-0.09213089942932129,-0.1394575983285904
86528,-11.276500701904297,22.89952278137207,118.60798645019531,1.3427734375,2.99072265625,0.42724609375,174.05099487304688,76.52900695800781,298.4056396484375,-0.9865525364875793,-0.08729176223278046,-0.13818201422691345
86773,-11.296451568603516,22.8688907623291,118.58967590332031,1.708984375,2.62451171875,0.54931640625,174.4276580810547,76.60883331298828,298.7189025878906,-0.9867820739746094,-0.09005676954984665,-0.1347249299287796
86893,-11.343926429748535,22.94058609008789,118.56473541259766,2.0751953125,2.685546875,0.48828125,174.61029052734375,76.64879608154297,298.86065673828125,-0.9856027364730835,-0.08281268179416656,-0.14740896224975586
87013,-11.321294784545898,23.008771896362305,118.56719207763672,1.46484375,2.86865234375,0.48828125,174.7662811279297,76.68081665039062,298.9850769042969,-0.9862222075462341,-0.08283262699842453,-0.1431940644979477
87133,-11.377975463867188,23.049076080322266,118.5279541015625,1.220703125,2.86865234375,0.244140625,175.1944580078125,76.76408386230469,299.3395690917969,-0.9867878556251526,-0.08295155316591263,-0.13917161524295807
87313,-11.384233474731445,23.048595428466797,118.51821899414062,1.15966796875,2.99072265625,0.3662109375,175.3687744140625,76.79946899414062,299.4853210449219,-0.9879734516143799,-0.08087686449289322,-0.13178595900535583
87553,-11.408712387084961,23.034099578857422,118.50316619873047,0.8544921875,3.41796875,0.54931640625,175.5570068359375,76.83302307128906,299.6480712890625,-0.9871916770935059,-0.0900932177901268,-0.13166548311710358
87733,-11.265410423278809,22.9705867767334,118.55224609375,1.15966796875,3.0517578125,0.6103515625,175.84864807128906,76.88656616210938,299.8971252441406,-0.9867896437644958,-0.09077649563550949,-0.13418613374233246
87853,-11.366631507873535,22.93960189819336,118.50577545166016,1.40380859375,3.0517578125,0.79345703125,176.12062072753906,76.94863891601562,300.1272277832031,-0.9874526262283325,-0.08453274518251419,-0.13338452577590942
88093,-11.34976577758789,23.055009841918945,118.50115966796875,1.3427734375,2.9296875,0.6103515625,176.61651611328125,77.04187774658203,300.5539245605469,-0.9873495101928711,-0.08600270748138428,-0.13320811092853546
88273,-11.387744903564453,23.036584854125977,118.47777557373047,1.5869140625,2.99072265625,0.6103515625,176.91769409179688,77.10328674316406,300.8096923828125,-0.9869091510772705,-0.08382131904363632,-0.13778354227542877
88453,-11.476542472839355,23.012964248657227,118.43704986572266,1.40380859375,3.173828125,0.48828125,177.15188598632812,77.13734436035156,301.0181579589844,-0.9850873947143555,-0.09046720713376999,-0.14635105431079865
88573,-11.28922176361084,23.051044464111328,118.49273681640625,0.79345703125,3.11279296875,0.06103515625,177.73680114746094,77.2192153930664,301.5396728515625,-0.9897036552429199,-0.07288002967834473,-0.12318766862154007
88753,-11.13930606842041,23.026945114135742,118.54485321044922,1.28173828125,3.11279296875,0.67138671875,178.04100036621094,77.28038024902344,301.8064880371094,-0.9869560599327087,-0.0823163390159607,-0.1383538395166397
88933,-10.98403263092041,23.085124969482422,118.59722900390625,2.685546875,3.11279296875,1.953125,178.31503295898438,77.3766098022461,302.00628662109375,-0.9916426539421082,-0.05371794104576111,-0.11730001121759415
89053,-11.063108444213867,23.081134796142578,118.57257080078125,1.77001953125,2.50244140625,1.953125,178.59628295898438,77.42373657226562,302.26385498046875,-0.9826744198799133,-0.09906089305877686,-0.15664604306221008
89233,-11.2182035446167,23.14928436279297,118.50355529785156,0.42724609375,2.01416015625,-0.42724609375,179.1895294189453,77.50566864013672,302.85089111328125,-0.9856384992599487,-0.0698966234922409,-0.1537245362997055
89353,-11.038895606994629,23.295846939086914,118.56578826904297,3.662109375,2.8076171875,1.8310546875,179.46975708007812,77.5986557006836,303.063232421875,-0.9870352745056152,-0.06226286292076111,-0.14793463051319122
89473,-11.137255668640137,23.308307647705078,118.5218734741211,1.28173828125,2.86865234375,0.42724609375,179.64186096191406,77.62469482421875,303.2044982910156,-0.9849295616149902,-0.07604985684156418,-0.15533842146396637
89594,-11.22118091583252,23.31434440612793,118.47907257080078,-0.42724609375,3.60107421875,-0.06103515625,-179.9976348876953,77.67727661132812,303.5687255859375,-0.9863796234130859,-0.0642271339893341,-0.15142689645290375
89773,-11.055328369140625,23.32147979736328,118.53685760498047,-0.30517578125,3.23486328125,-0.06103515625,-179.71710205078125,77.76516723632812,303.8453369140625,-0.9867888689041138,-0.061516303569078445,-0.14987826347351074
89893,-11.051963806152344,23.33332633972168,118.53643035888672,-0.1220703125,3.96728515625,0.42724609375,-179.55575561523438,77.83145904541016,304.01788330078125,-0.9853895902633667,-0.06954848021268845,-0.15546832978725433
90013,-11.00335693359375,23.295568466186523,118.55691528320312,0.732421875,3.662109375,1.28173828125,-179.37132263183594,77.90673828125,304.21295166015625,-0.9835364818572998,-0.0616505965590477,-0.1698683351278305
90133,-10.83318042755127,23.27890396118164,118.62309265136719,3.2958984375,4.57763671875,1.52587890625,-179.4916534423828,78.02342224121094,304.0719299316406,-0.980850100517273,-0.053553905338048935,-0.18725651502609253
90373,-10.688668251037598,23.274063110351562,118.66107940673828,5.37109375,2.50244140625,1.52587890625,-179.90806579589844,78.08058166503906,303.647216796875,-0.9347391128540039,-0.22229595482349396,-0.277213454246521
90494,-10.741599082946777,23.258298873901367,118.63312530517578,3.41796875,3.173828125,1.708984375,-179.9540252685547,78.06310272216797,303.6175842285156,-0.9618432521820068,-0.1643732637166977,-0.21872150897979736
